"rt","responses","trial_id","trial_type","trial_index","time_elapsed","internal_node_id","exp_id","full_screen","focus_shifts","mouse_click","stim_duration","block_duration","timing_post_trial","exp_stage","which_round","num_click_in_round","num_loss_cards","gain_amount","loss_amount","round_points","clicked_on_loss_card","round_type","credit_var","performance_var","text","key_press"
"7148","{""Q0"":""Test3""}","pre task questions","survey-text","0","7149","0.0-0.0","columbia-card-task-hot","false","0","","","","","","","","","","","","","","","","",""
"5988","","pre_stim","single-stim-button","1","14141","0.0-1.0-0.0","columbia-card-task-hot","false","0","16","5988","5988","0","test","1","1","3","30","250","30","false","rigged_loss","","","",""
"478","","pre_stim","single-stim-button","2","14620","0.0-1.1-0.1","columbia-card-task-hot","false","0","24","478","478","0","test","1","2","3","30","250","60","false","rigged_loss","","","",""
"423","","pre_stim","single-stim-button","3","15044","0.0-1.2-0.2","columbia-card-task-hot","false","0","23","423","423","0","test","1","3","3","30","250","90","false","rigged_loss","","","",""
"687","","pre_stim","single-stim-button","4","15732","0.0-1.3-0.3","columbia-card-task-hot","false","0","22","687","687","0","test","1","4","3","30","250","120","false","rigged_loss","","","",""
"1031","","pre_stim","single-stim-button","5","16763","0.0-1.4-0.4","columbia-card-task-hot","false","0","18","1031","1031","0","test","1","5","3","30","250","150","false","rigged_loss","","","",""
"647","","pre_stim","single-stim-button","6","17412","0.0-1.5-0.5","columbia-card-task-hot","false","0","9","647","647","0","test","1","6","3","30","250","180","false","rigged_loss","","","",""
"527","","pre_stim","single-stim-button","7","17939","0.0-1.6-0.6","columbia-card-task-hot","false","0","1","527","527","0","test","1","7","3","30","250","210","false","rigged_loss","","","",""
"391","","pre_stim","single-stim-button","8","18332","0.0-1.7-0.7","columbia-card-task-hot","false","0","2","391","391","0","test","1","8","3","30","250","240","false","rigged_loss","","","",""
"383","","pre_stim","single-stim-button","9","18716","0.0-1.8-0.8","columbia-card-task-hot","false","0","3","383","383","0","test","1","9","3","30","250","270","false","rigged_loss","","","",""
"399","","pre_stim","single-stim-button","10","19115","0.0-1.9-0.9","columbia-card-task-hot","false","0","4","399","399","0","test","1","10","3","30","250","300","false","rigged_loss","","","",""
"1063","","pre_stim","single-stim-button","11","20180","0.0-1.10-0.10","columbia-card-task-hot","false","0","30","1063","1063","0","test","1","11","3","30","250","330","false","rigged_loss","","","",""
"727","","pre_stim","single-stim-button","12","20908","0.0-1.11-0.11","columbia-card-task-hot","false","0","28","727","727","0","test","1","12","3","30","250","360","false","rigged_loss","","","",""
"1303","","pre_stim","single-stim-button","13","22212","0.0-1.12-0.12","columbia-card-task-hot","false","0","15","1303","1303","0","test","1","13","3","30","250","390","false","rigged_loss","","","",""
"807","","pre_stim","single-stim-button","14","23020","0.0-1.13-0.13","columbia-card-task-hot","false","0","6","807","807","0","test","1","14","3","30","250","420","false","rigged_loss","","","",""
"1431","","pre_stim","single-stim-button","15","24452","0.0-1.14-0.14","columbia-card-task-hot","false","0","11","1431","1431","0","test","1","15","3","30","250","450","false","rigged_loss","","","",""
"1303","","pre_stim","single-stim-button","16","25756","0.0-1.15-0.15","columbia-card-task-hot","false","0","25","1303","1303","0","test","1","16","3","30","250","480","false","rigged_loss","","","",""
"1719","","pre_stim","single-stim-button","17","27476","0.0-1.16-0.16","columbia-card-task-hot","false","0","32","1719","1719","0","test","1","17","3","30","250","510","false","rigged_loss","","","",""
"2359","","pre_stim","single-stim-button","18","29836","0.0-1.17-0.17","columbia-card-task-hot","false","0","turnButton","2359","2359","0","test","1","17","3","30","250","510","false","rigged_loss","","","",""
"4743","","pre_stim","single-stim-button","19","34579","0.0-1.18-0.18","columbia-card-task-hot","false","0","collectButton","4743","4743","0","test","1","18","3","30","250","510","false","rigged_loss","","","",""
"6279","","pre_stim","single-stim-button","20","40860","0.0-2.0-0.0","columbia-card-task-hot","false","0","4","6279","6279","0","test","2","1","3","10","250","10","false","rigged_win","","","",""
"415","","pre_stim","single-stim-button","21","41276","0.0-2.1-0.1","columbia-card-task-hot","false","0","12","415","415","0","test","2","2","3","10","250","20","false","rigged_win","","","",""
"439","","pre_stim","single-stim-button","22","41716","0.0-2.2-0.2","columbia-card-task-hot","false","0","20","439","439","0","test","2","3","3","10","250","30","false","rigged_win","","","",""
"511","","pre_stim","single-stim-button","23","42228","0.0-2.3-0.3","columbia-card-task-hot","false","0","28","511","511","0","test","2","4","3","10","250","40","false","rigged_win","","","",""
"1183","","pre_stim","single-stim-button","24","43411","0.0-2.4-0.4","columbia-card-task-hot","false","0","29","1183","1183","0","test","2","5","3","10","250","50","false","rigged_win","","","",""
"999","","pre_stim","single-stim-button","25","44412","0.0-2.5-0.5","columbia-card-task-hot","false","0","11","999","999","0","test","2","6","3","10","250","60","false","rigged_win","","","",""
"719","","pre_stim","single-stim-button","26","45131","0.0-2.6-0.6","columbia-card-task-hot","false","0","2","719","719","0","test","2","7","3","10","250","70","false","rigged_win","","","",""
"1111","","pre_stim","single-stim-button","27","46244","0.0-2.7-0.7","columbia-card-task-hot","false","0","7","1111","1111","0","test","2","8","3","10","250","80","false","rigged_win","","","",""
"2167","","pre_stim","single-stim-button","28","48412","0.0-2.8-0.8","columbia-card-task-hot","false","0","18","2167","2167","0","test","2","9","3","10","250","90","false","rigged_win","","","",""
"607","","pre_stim","single-stim-button","29","49020","0.0-2.9-0.9","columbia-card-task-hot","false","0","9","607","607","0","test","2","10","3","10","250","100","false","rigged_win","","","",""
"631","","pre_stim","single-stim-button","30","49652","0.0-2.10-0.10","columbia-card-task-hot","false","0","1","631","631","0","test","2","11","3","10","250","110","false","rigged_win","","","",""
"1599","","pre_stim","single-stim-button","31","51251","0.0-2.11-0.11","columbia-card-task-hot","false","0","23","1599","1599","0","test","2","12","3","10","250","120","false","rigged_win","","","",""
"2247","","pre_stim","single-stim-button","32","53500","0.0-2.12-0.12","columbia-card-task-hot","false","0","16","2247","2247","0","test","2","13","3","10","250","130","false","rigged_win","","","",""
"1567","","pre_stim","single-stim-button","33","55068","0.0-2.13-0.13","columbia-card-task-hot","false","0","5","1567","1567","0","test","2","14","3","10","250","140","false","rigged_win","","","",""
"1895","","pre_stim","single-stim-button","34","56964","0.0-2.14-0.14","columbia-card-task-hot","false","0","31","1895","1895","0","test","2","15","3","10","250","150","false","rigged_win","","","",""
"1447","","pre_stim","single-stim-button","35","58411","0.0-2.15-0.15","columbia-card-task-hot","false","0","turnButton","1447","1447","0","test","2","15","3","10","250","150","false","rigged_win","","","",""
"3511","","pre_stim","single-stim-button","36","61923","0.0-2.16-0.16","columbia-card-task-hot","false","0","collectButton","3511","3511","0","test","2","16","3","10","250","150","false","rigged_win","","","",""
"6159","","pre_stim","single-stim-button","37","68084","0.0-3.0-0.0","columbia-card-task-hot","false","0","23","6159","6159","0","test","3","1","3","10","750","10","false","rigged_loss","","","",""
"399","","pre_stim","single-stim-button","38","68484","0.0-3.1-0.1","columbia-card-task-hot","false","0","24","399","399","0","test","3","2","3","10","750","20","false","rigged_loss","","","",""
"335","","pre_stim","single-stim-button","39","68820","0.0-3.2-0.2","columbia-card-task-hot","false","0","32","335","335","0","test","3","3","3","10","750","30","false","rigged_loss","","","",""
"351","","pre_stim","single-stim-button","40","69171","0.0-3.3-0.3","columbia-card-task-hot","false","0","31","351","351","0","test","3","4","3","10","750","40","false","rigged_loss","","","",""
"895","","pre_stim","single-stim-button","41","70068","0.0-3.4-0.4","columbia-card-task-hot","false","0","1","895","895","0","test","3","5","3","10","750","-710","true","rigged_loss","","","",""
"4639","","pre_stim","single-stim-button","42","74708","0.0-3.5-0.5","columbia-card-task-hot","false","0","collectButton","4639","4639","0","test","3","6","3","10","750","-710","true","rigged_loss","","","",""
"7031","","pre_stim","single-stim-button","43","81740","0.0-4.0-0.0","columbia-card-task-hot","false","0","30","7031","7031","0","test","4","1","1","10","750","10","false","rigged_loss","","","",""
"399","","pre_stim","single-stim-button","44","82139","0.0-4.1-0.1","columbia-card-task-hot","false","0","31","399","399","0","test","4","2","1","10","750","20","false","rigged_loss","","","",""
"367","","pre_stim","single-stim-button","45","82507","0.0-4.2-0.2","columbia-card-task-hot","false","0","32","367","367","0","test","4","3","1","10","750","30","false","rigged_loss","","","",""
"487","","pre_stim","single-stim-button","46","82995","0.0-4.3-0.3","columbia-card-task-hot","false","0","24","487","487","0","test","4","4","1","10","750","40","false","rigged_loss","","","",""
"423","","pre_stim","single-stim-button","47","83419","0.0-4.4-0.4","columbia-card-task-hot","false","0","23","423","423","0","test","4","5","1","10","750","50","false","rigged_loss","","","",""
"727","","pre_stim","single-stim-button","48","84148","0.0-4.5-0.5","columbia-card-task-hot","false","0","15","727","727","0","test","4","6","1","10","750","60","false","rigged_loss","","","",""
"575","","pre_stim","single-stim-button","49","84724","0.0-4.6-0.6","columbia-card-task-hot","false","0","16","575","575","0","test","4","7","1","10","750","70","false","rigged_loss","","","",""
"671","","pre_stim","single-stim-button","50","85396","0.0-4.7-0.7","columbia-card-task-hot","false","0","8","671","671","0","test","4","8","1","10","750","80","false","rigged_loss","","","",""
"1599","","pre_stim","single-stim-button","51","86995","0.0-4.8-0.8","columbia-card-task-hot","false","0","26","1599","1599","0","test","4","9","1","10","750","-670","true","rigged_loss","","","",""
"2751","","pre_stim","single-stim-button","52","89747","0.0-4.9-0.9","columbia-card-task-hot","false","0","collectButton","2751","2751","0","test","4","10","1","10","750","-670","true","rigged_loss","","","",""
"6375","","pre_stim","single-stim-button","53","96124","0.0-5.0-0.0","columbia-card-task-hot","false","0","15","6375","6375","0","test","5","1","1","10","250","10","false","rigged_loss","","","",""
"1815","","pre_stim","single-stim-button","54","97940","0.0-5.1-0.1","columbia-card-task-hot","false","0","1","1815","1815","0","test","5","2","1","10","250","-240","true","rigged_loss","","","",""
"2471","","pre_stim","single-stim-button","55","100411","0.0-5.2-0.2","columbia-card-task-hot","false","0","collectButton","2471","2471","0","test","5","3","1","10","250","-240","true","rigged_loss","","","",""
"6175","","pre_stim","single-stim-button","56","106588","0.0-6.0-0.0","columbia-card-task-hot","false","0","24","6175","6175","0","test","6","1","3","10","750","10","false","rigged_win","","","",""
"671","","pre_stim","single-stim-button","57","107259","0.0-6.1-0.1","columbia-card-task-hot","false","0","32","671","671","0","test","6","2","3","10","750","20","false","rigged_win","","","",""
"935","","pre_stim","single-stim-button","58","108196","0.0-6.2-0.2","columbia-card-task-hot","false","0","31","935","935","0","test","6","3","3","10","750","30","false","rigged_win","","","",""
"2727","","pre_stim","single-stim-button","59","110924","0.0-6.3-0.3","columbia-card-task-hot","false","0","1","2727","2727","0","test","6","4","3","10","750","40","false","rigged_win","","","",""
"1822","","pre_stim","single-stim-button","60","112748","0.0-6.4-0.4","columbia-card-task-hot","false","0","8","1822","1822","0","test","6","5","3","10","750","50","false","rigged_win","","","",""
"3031","","pre_stim","single-stim-button","61","115779","0.0-6.5-0.5","columbia-card-task-hot","false","0","19","3031","3031","0","test","6","6","3","10","750","60","false","rigged_win","","","",""
"1456","","pre_stim","single-stim-button","62","117235","0.0-6.6-0.6","columbia-card-task-hot","false","0","turnButton","1456","1456","0","test","6","6","3","10","750","60","false","rigged_win","","","",""
"5846","","pre_stim","single-stim-button","63","123082","0.0-6.7-0.7","columbia-card-task-hot","false","0","collectButton","5846","5846","0","test","6","7","3","10","750","60","false","rigged_win","","","",""
"7391","","pre_stim","single-stim-button","64","130475","0.0-7.0-0.0","columbia-card-task-hot","false","0","28","7391","7391","0","test","7","1","1","10","750","10","false","rigged_loss","","","",""
"479","","pre_stim","single-stim-button","65","130955","0.0-7.1-0.1","columbia-card-task-hot","false","0","29","479","479","0","test","7","2","1","10","750","20","false","rigged_loss","","","",""
"431","","pre_stim","single-stim-button","66","131386","0.0-7.2-0.2","columbia-card-task-hot","false","0","30","431","431","0","test","7","3","1","10","750","30","false","rigged_loss","","","",""
"415","","pre_stim","single-stim-button","67","131802","0.0-7.3-0.3","columbia-card-task-hot","false","0","31","415","415","0","test","7","4","1","10","750","40","false","rigged_loss","","","",""
"407","","pre_stim","single-stim-button","68","132211","0.0-7.4-0.4","columbia-card-task-hot","false","0","32","407","407","0","test","7","5","1","10","750","50","false","rigged_loss","","","",""
"359","","pre_stim","single-stim-button","69","132570","0.0-7.5-0.5","columbia-card-task-hot","false","0","24","359","359","0","test","7","6","1","10","750","60","false","rigged_loss","","","",""
"383","","pre_stim","single-stim-button","70","132954","0.0-7.6-0.6","columbia-card-task-hot","false","0","23","383","383","0","test","7","7","1","10","750","70","false","rigged_loss","","","",""
"479","","pre_stim","single-stim-button","71","133435","0.0-7.7-0.7","columbia-card-task-hot","false","0","22","479","479","0","test","7","8","1","10","750","80","false","rigged_loss","","","",""
"431","","pre_stim","single-stim-button","72","133867","0.0-7.8-0.8","columbia-card-task-hot","false","0","21","431","431","0","test","7","9","1","10","750","-670","true","rigged_loss","","","",""
"2463","","pre_stim","single-stim-button","73","136330","0.0-7.9-0.9","columbia-card-task-hot","false","0","collectButton","2463","2463","0","test","7","10","1","10","750","-670","true","rigged_loss","","","",""
"6095","","pre_stim","single-stim-button","74","142427","0.0-8.0-0.0","columbia-card-task-hot","false","0","1","6095","6095","0","test","8","1","3","30","750","30","false","rigged_win","","","",""
"895","","pre_stim","single-stim-button","75","143323","0.0-8.1-0.1","columbia-card-task-hot","false","0","32","895","895","0","test","8","2","3","30","750","60","false","rigged_win","","","",""
"575","","pre_stim","single-stim-button","76","143899","0.0-8.2-0.2","columbia-card-task-hot","false","0","31","575","575","0","test","8","3","3","30","750","90","false","rigged_win","","","",""
"751","","pre_stim","single-stim-button","77","144650","0.0-8.3-0.3","columbia-card-task-hot","false","0","24","751","751","0","test","8","4","3","30","750","120","false","rigged_win","","","",""
"1383","","pre_stim","single-stim-button","78","146034","0.0-8.4-0.4","columbia-card-task-hot","false","0","8","1383","1383","0","test","8","5","3","30","750","150","false","rigged_win","","","",""
"3143","","pre_stim","single-stim-button","79","149179","0.0-8.5-0.5","columbia-card-task-hot","false","0","30","3143","3143","0","test","8","6","3","30","750","180","false","rigged_win","","","",""
"1447","","pre_stim","single-stim-button","80","150627","0.0-8.6-0.6","columbia-card-task-hot","false","0","10","1447","1447","0","test","8","7","3","30","750","210","false","rigged_win","","","",""
"2303","","pre_stim","single-stim-button","81","152930","0.0-8.7-0.7","columbia-card-task-hot","false","0","7","2303","2303","0","test","8","8","3","30","750","240","false","rigged_win","","","",""
"1287","","pre_stim","single-stim-button","82","154219","0.0-8.8-0.8","columbia-card-task-hot","false","0","3","1287","1287","0","test","8","9","3","30","750","270","false","rigged_win","","","",""
"887","","pre_stim","single-stim-button","83","155106","0.0-8.9-0.9","columbia-card-task-hot","false","0","17","887","887","0","test","8","10","3","30","750","300","false","rigged_win","","","",""
"1519","","pre_stim","single-stim-button","84","156626","0.0-8.10-0.10","columbia-card-task-hot","false","0","27","1519","1519","0","test","8","11","3","30","750","330","false","rigged_win","","","",""
"3863","","pre_stim","single-stim-button","85","160490","0.0-8.11-0.11","columbia-card-task-hot","false","0","turnButton","3863","3863","0","test","8","11","3","30","750","330","false","rigged_win","","","",""
"3759","","pre_stim","single-stim-button","86","164251","0.0-8.12-0.12","columbia-card-task-hot","false","0","collectButton","3759","3759","0","test","8","12","3","30","750","330","false","rigged_win","","","",""
"6327","","pre_stim","single-stim-button","87","170579","0.0-9.0-0.0","columbia-card-task-hot","false","0","7","6327","6327","0","test","9","1","1","10","750","10","false","rigged_win","","","",""
"551","","pre_stim","single-stim-button","88","171131","0.0-9.1-0.1","columbia-card-task-hot","false","0","15","551","551","0","test","9","2","1","10","750","20","false","rigged_win","","","",""
"591","","pre_stim","single-stim-button","89","171722","0.0-9.2-0.2","columbia-card-task-hot","false","0","16","591","591","0","test","9","3","1","10","750","30","false","rigged_win","","","",""
"495","","pre_stim","single-stim-button","90","172218","0.0-9.3-0.3","columbia-card-task-hot","false","0","24","495","495","0","test","9","4","1","10","750","40","false","rigged_win","","","",""
"463","","pre_stim","single-stim-button","91","172683","0.0-9.4-0.4","columbia-card-task-hot","false","0","23","463","463","0","test","9","5","1","10","750","50","false","rigged_win","","","",""
"439","","pre_stim","single-stim-button","92","173123","0.0-9.5-0.5","columbia-card-task-hot","false","0","31","439","439","0","test","9","6","1","10","750","60","false","rigged_win","","","",""
"463","","pre_stim","single-stim-button","93","173586","0.0-9.6-0.6","columbia-card-task-hot","false","0","30","463","463","0","test","9","7","1","10","750","70","false","rigged_win","","","",""
"695","","pre_stim","single-stim-button","94","174283","0.0-9.7-0.7","columbia-card-task-hot","false","0","22","695","695","0","test","9","8","1","10","750","80","false","rigged_win","","","",""
"967","","pre_stim","single-stim-button","95","175250","0.0-9.8-0.8","columbia-card-task-hot","false","0","21","967","967","0","test","9","9","1","10","750","90","false","rigged_win","","","",""
"647","","pre_stim","single-stim-button","96","175899","0.0-9.9-0.9","columbia-card-task-hot","false","0","13","647","647","0","test","9","10","1","10","750","100","false","rigged_win","","","",""
"2127","","pre_stim","single-stim-button","97","178027","0.0-9.10-0.10","columbia-card-task-hot","false","0","5","2127","2127","0","test","9","11","1","10","750","110","false","rigged_win","","","",""
"655","","pre_stim","single-stim-button","98","178682","0.0-9.11-0.11","columbia-card-task-hot","false","0","6","655","655","0","test","9","12","1","10","750","120","false","rigged_win","","","",""
"2527","","pre_stim","single-stim-button","99","181211","0.0-9.12-0.12","columbia-card-task-hot","false","0","20","2527","2527","0","test","9","13","1","10","750","130","false","rigged_win","","","",""
"1343","","pre_stim","single-stim-button","100","182555","0.0-9.13-0.13","columbia-card-task-hot","false","0","17","1343","1343","0","test","9","14","1","10","750","140","false","rigged_win","","","",""
"2280","","pre_stim","single-stim-button","101","184835","0.0-9.14-0.14","columbia-card-task-hot","false","0","9","2280","2280","0","test","9","15","1","10","750","150","false","rigged_win","","","",""
"1734","","pre_stim","single-stim-button","102","186571","0.0-9.15-0.15","columbia-card-task-hot","false","0","29","1734","1734","0","test","9","16","1","10","750","160","false","rigged_win","","","",""
"511","","pre_stim","single-stim-button","103","187083","0.0-9.16-0.16","columbia-card-task-hot","false","0","28","511","511","0","test","9","17","1","10","750","170","false","rigged_win","","","",""
"3591","","pre_stim","single-stim-button","104","190675","0.0-9.17-0.17","columbia-card-task-hot","false","0","2","3591","3591","0","test","9","18","1","10","750","180","false","rigged_win","","","",""
"1407","","pre_stim","single-stim-button","105","192083","0.0-9.18-0.18","columbia-card-task-hot","false","0","turnButton","1407","1407","0","test","9","18","1","10","750","180","false","rigged_win","","","",""
"3951","","pre_stim","single-stim-button","106","196035","0.0-9.19-0.19","columbia-card-task-hot","false","0","collectButton","3951","3951","0","test","9","19","1","10","750","180","false","rigged_win","","","",""
"6015","","pre_stim","single-stim-button","107","202052","0.0-10.0-0.0","columbia-card-task-hot","false","0","7","6015","6015","0","test","10","1","3","10","250","10","false","rigged_win","","","",""
"550","","pre_stim","single-stim-button","108","202603","0.0-10.1-0.1","columbia-card-task-hot","false","0","8","550","550","0","test","10","2","3","10","250","20","false","rigged_win","","","",""
"1110","","pre_stim","single-stim-button","109","203715","0.0-10.2-0.2","columbia-card-task-hot","false","0","1","1110","1110","0","test","10","3","3","10","250","30","false","rigged_win","","","",""
"1175","","pre_stim","single-stim-button","110","204891","0.0-10.3-0.3","columbia-card-task-hot","false","0","17","1175","1175","0","test","10","4","3","10","250","40","false","rigged_win","","","",""
"494","","pre_stim","single-stim-button","111","205387","0.0-10.4-0.4","columbia-card-task-hot","false","0","18","494","494","0","test","10","5","3","10","250","50","false","rigged_win","","","",""
"655","","pre_stim","single-stim-button","112","206043","0.0-10.5-0.5","columbia-card-task-hot","false","0","27","655","655","0","test","10","6","3","10","250","60","false","rigged_win","","","",""
"926","","pre_stim","single-stim-button","113","206971","0.0-10.6-0.6","columbia-card-task-hot","false","0","20","926","926","0","test","10","7","3","10","250","70","false","rigged_win","","","",""
"974","","pre_stim","single-stim-button","114","207947","0.0-10.7-0.7","columbia-card-task-hot","false","0","22","974","974","0","test","10","8","3","10","250","80","false","rigged_win","","","",""
"606","","pre_stim","single-stim-button","115","208555","0.0-10.8-0.8","columbia-card-task-hot","false","0","31","606","606","0","test","10","9","3","10","250","90","false","rigged_win","","","",""
"1582","","pre_stim","single-stim-button","116","210139","0.0-10.9-0.9","columbia-card-task-hot","false","0","6","1582","1582","0","test","10","10","3","10","250","100","false","rigged_win","","","",""
"1879","","pre_stim","single-stim-button","117","212019","0.0-10.10-0.10","columbia-card-task-hot","false","0","3","1879","1879","0","test","10","11","3","10","250","110","false","rigged_win","","","",""
"1622","","pre_stim","single-stim-button","118","213643","0.0-10.11-0.11","columbia-card-task-hot","false","0","16","1622","1622","0","test","10","12","3","10","250","120","false","rigged_win","","","",""
"1798","","pre_stim","single-stim-button","119","215443","0.0-10.12-0.12","columbia-card-task-hot","false","0","24","1798","1798","0","test","10","13","3","10","250","130","false","rigged_win","","","",""
"4135","","pre_stim","single-stim-button","120","219579","0.0-10.13-0.13","columbia-card-task-hot","false","0","29","4135","4135","0","test","10","14","3","10","250","140","false","rigged_win","","","",""
"3302","","pre_stim","single-stim-button","121","222883","0.0-10.14-0.14","columbia-card-task-hot","false","0","11","3302","3302","0","test","10","15","3","10","250","150","false","rigged_win","","","",""
"1439","","pre_stim","single-stim-button","122","224323","0.0-10.15-0.15","columbia-card-task-hot","false","0","turnButton","1439","1439","0","test","10","15","3","10","250","150","false","rigged_win","","","",""
"3166","","pre_stim","single-stim-button","123","227491","0.0-10.16-0.16","columbia-card-task-hot","false","0","collectButton","3166","3166","0","test","10","16","3","10","250","150","false","rigged_win","","","",""
"6216","","pre_stim","single-stim-button","124","233707","0.0-11.0-0.0","columbia-card-task-hot","false","0","9","6216","6216","0","test","11","1","3","10","750","10","false","rigged_win","","","",""
"495","","pre_stim","single-stim-button","125","234203","0.0-11.1-0.1","columbia-card-task-hot","false","0","1","495","495","0","test","11","2","3","10","750","20","false","rigged_win","","","",""
"926","","pre_stim","single-stim-button","126","235131","0.0-11.2-0.2","columbia-card-task-hot","false","0","32","926","926","0","test","11","3","3","10","750","30","false","rigged_win","","","",""
"1038","","pre_stim","single-stim-button","127","236171","0.0-11.3-0.3","columbia-card-task-hot","false","0","29","1038","1038","0","test","11","4","3","10","750","40","false","rigged_win","","","",""
"638","","pre_stim","single-stim-button","128","236811","0.0-11.4-0.4","columbia-card-task-hot","false","0","21","638","638","0","test","11","5","3","10","750","50","false","rigged_win","","","",""
"606","","pre_stim","single-stim-button","129","237419","0.0-11.5-0.5","columbia-card-task-hot","false","0","13","606","606","0","test","11","6","3","10","750","60","false","rigged_win","","","",""
"535","","pre_stim","single-stim-button","130","237955","0.0-11.6-0.6","columbia-card-task-hot","false","0","5","535","535","0","test","11","7","3","10","750","70","false","rigged_win","","","",""
"1366","","pre_stim","single-stim-button","131","239323","0.0-11.7-0.7","columbia-card-task-hot","false","0","6","1366","1366","0","test","11","8","3","10","750","80","false","rigged_win","","","",""
"2039","","pre_stim","single-stim-button","132","241363","0.0-11.8-0.8","columbia-card-task-hot","false","0","14","2039","2039","0","test","11","9","3","10","750","90","false","rigged_win","","","",""
"806","","pre_stim","single-stim-button","133","242171","0.0-11.9-0.9","columbia-card-task-hot","false","0","4","806","806","0","test","11","10","3","10","750","100","false","rigged_win","","","",""
"2967","","pre_stim","single-stim-button","134","245139","0.0-11.10-0.10","columbia-card-task-hot","false","0","23","2967","2967","0","test","11","11","3","10","750","110","false","rigged_win","","","",""
"1142","","pre_stim","single-stim-button","135","246283","0.0-11.11-0.11","columbia-card-task-hot","false","0","27","1142","1142","0","test","11","12","3","10","750","120","false","rigged_win","","","",""
"1111","","pre_stim","single-stim-button","136","247395","0.0-11.12-0.12","columbia-card-task-hot","false","0","17","1111","1111","0","test","11","13","3","10","750","130","false","rigged_win","","","",""
"1839","","pre_stim","single-stim-button","137","249235","0.0-11.13-0.13","columbia-card-task-hot","false","0","7","1839","1839","0","test","11","14","3","10","750","140","false","rigged_win","","","",""
"4223","","pre_stim","single-stim-button","138","253459","0.0-11.14-0.14","columbia-card-task-hot","false","0","31","4223","4223","0","test","11","15","3","10","750","150","false","rigged_win","","","",""
"1239","","pre_stim","single-stim-button","139","254699","0.0-11.15-0.15","columbia-card-task-hot","false","0","turnButton","1239","1239","0","test","11","15","3","10","750","150","false","rigged_win","","","",""
"2686","","pre_stim","single-stim-button","140","257387","0.0-11.16-0.16","columbia-card-task-hot","false","0","collectButton","2686","2686","0","test","11","16","3","10","750","150","false","rigged_win","","","",""
"6199","","pre_stim","single-stim-button","141","263587","0.0-12.0-0.0","columbia-card-task-hot","false","0","2","6199","6199","0","test","12","1","1","30","250","30","false","rigged_win","","","",""
"534","","pre_stim","single-stim-button","142","264123","0.0-12.1-0.1","columbia-card-task-hot","false","0","1","534","534","0","test","12","2","1","30","250","60","false","rigged_win","","","",""
"462","","pre_stim","single-stim-button","143","264586","0.0-12.2-0.2","columbia-card-task-hot","false","0","9","462","462","0","test","12","3","1","30","250","90","false","rigged_win","","","",""
"503","","pre_stim","single-stim-button","144","265091","0.0-12.3-0.3","columbia-card-task-hot","false","0","17","503","503","0","test","12","4","1","30","250","120","false","rigged_win","","","",""
"1359","","pre_stim","single-stim-button","145","266451","0.0-12.4-0.4","columbia-card-task-hot","false","0","25","1359","1359","0","test","12","5","1","30","250","150","false","rigged_win","","","",""
"422","","pre_stim","single-stim-button","146","266875","0.0-12.5-0.5","columbia-card-task-hot","false","0","26","422","422","0","test","12","6","1","30","250","180","false","rigged_win","","","",""
"431","","pre_stim","single-stim-button","147","267307","0.0-12.6-0.6","columbia-card-task-hot","false","0","18","431","431","0","test","12","7","1","30","250","210","false","rigged_win","","","",""
"454","","pre_stim","single-stim-button","148","267763","0.0-12.7-0.7","columbia-card-task-hot","false","0","27","454","454","0","test","12","8","1","30","250","240","false","rigged_win","","","",""
"470","","pre_stim","single-stim-button","149","268235","0.0-12.8-0.8","columbia-card-task-hot","false","0","28","470","470","0","test","12","9","1","30","250","270","false","rigged_win","","","",""
"455","","pre_stim","single-stim-button","150","268691","0.0-12.9-0.9","columbia-card-task-hot","false","0","29","455","455","0","test","12","10","1","30","250","300","false","rigged_win","","","",""
"614","","pre_stim","single-stim-button","151","269307","0.0-12.10-0.10","columbia-card-task-hot","false","0","19","614","614","0","test","12","11","1","30","250","330","false","rigged_win","","","",""
"1246","","pre_stim","single-stim-button","152","270555","0.0-12.11-0.11","columbia-card-task-hot","false","0","3","1246","1246","0","test","12","12","1","30","250","360","false","rigged_win","","","",""
"487","","pre_stim","single-stim-button","153","271043","0.0-12.12-0.12","columbia-card-task-hot","false","0","4","487","487","0","test","12","13","1","30","250","390","false","rigged_win","","","",""
"566","","pre_stim","single-stim-button","154","271611","0.0-12.13-0.13","columbia-card-task-hot","false","0","5","566","566","0","test","12","14","1","30","250","420","false","rigged_win","","","",""
"911","","pre_stim","single-stim-button","155","272523","0.0-12.14-0.14","columbia-card-task-hot","false","0","22","911","911","0","test","12","15","1","30","250","450","false","rigged_win","","","",""
"1238","","pre_stim","single-stim-button","156","273763","0.0-12.15-0.15","columbia-card-task-hot","false","0","32","1238","1238","0","test","12","16","1","30","250","480","false","rigged_win","","","",""
"1174","","pre_stim","single-stim-button","157","274939","0.0-12.16-0.16","columbia-card-task-hot","false","0","12","1174","1174","0","test","12","17","1","30","250","510","false","rigged_win","","","",""
"1223","","pre_stim","single-stim-button","158","276163","0.0-12.17-0.17","columbia-card-task-hot","false","0","6","1223","1223","0","test","12","18","1","30","250","540","false","rigged_win","","","",""
"3494","","pre_stim","single-stim-button","159","279659","0.0-12.18-0.18","columbia-card-task-hot","false","0","turnButton","3494","3494","0","test","12","18","1","30","250","540","false","rigged_win","","","",""
"3574","","pre_stim","single-stim-button","160","283235","0.0-12.19-0.19","columbia-card-task-hot","false","0","collectButton","3574","3574","0","test","12","19","1","30","250","540","false","rigged_win","","","",""
"6310","","pre_stim","single-stim-button","161","289547","0.0-13.0-0.0","columbia-card-task-hot","false","0","2","6310","6310","0","test","13","1","1","10","750","10","false","rigged_loss","","","",""
"438","","pre_stim","single-stim-button","162","289987","0.0-13.1-0.1","columbia-card-task-hot","false","0","3","438","438","0","test","13","2","1","10","750","20","false","rigged_loss","","","",""
"622","","pre_stim","single-stim-button","163","290611","0.0-13.2-0.2","columbia-card-task-hot","false","0","4","622","622","0","test","13","3","1","10","750","30","false","rigged_loss","","","",""
"735","","pre_stim","single-stim-button","164","291347","0.0-13.3-0.3","columbia-card-task-hot","false","0","8","735","735","0","test","13","4","1","10","750","40","false","rigged_loss","","","",""
"510","","pre_stim","single-stim-button","165","291859","0.0-13.4-0.4","columbia-card-task-hot","false","0","16","510","510","0","test","13","5","1","10","750","50","false","rigged_loss","","","",""
"478","","pre_stim","single-stim-button","166","292339","0.0-13.5-0.5","columbia-card-task-hot","false","0","24","478","478","0","test","13","6","1","10","750","60","false","rigged_loss","","","",""
"471","","pre_stim","single-stim-button","167","292811","0.0-13.6-0.6","columbia-card-task-hot","false","0","32","471","471","0","test","13","7","1","10","750","70","false","rigged_loss","","","",""
"831","","pre_stim","single-stim-button","168","293643","0.0-13.7-0.7","columbia-card-task-hot","false","0","28","831","831","0","test","13","8","1","10","750","80","false","rigged_loss","","","",""
"406","","pre_stim","single-stim-button","169","294051","0.0-13.8-0.8","columbia-card-task-hot","false","0","29","406","406","0","test","13","9","1","10","750","90","false","rigged_loss","","","",""
"430","","pre_stim","single-stim-button","170","294483","0.0-13.9-0.9","columbia-card-task-hot","false","0","30","430","430","0","test","13","10","1","10","750","100","false","rigged_loss","","","",""
"630","","pre_stim","single-stim-button","171","295115","0.0-13.10-0.10","columbia-card-task-hot","false","0","26","630","630","0","test","13","11","1","10","750","-650","true","rigged_loss","","","",""
"2526","","pre_stim","single-stim-button","172","297643","0.0-13.11-0.11","columbia-card-task-hot","false","0","collectButton","2526","2526","0","test","13","12","1","10","750","-650","true","rigged_loss","","","",""
"6199","","pre_stim","single-stim-button","173","303844","0.0-14.0-0.0","columbia-card-task-hot","false","0","2","6199","6199","0","test","14","1","1","30","750","30","false","rigged_win","","","",""
"471","","pre_stim","single-stim-button","174","304315","0.0-14.1-0.1","columbia-card-task-hot","false","0","1","471","471","0","test","14","2","1","30","750","60","false","rigged_win","","","",""
"759","","pre_stim","single-stim-button","175","305075","0.0-14.2-0.2","columbia-card-task-hot","false","0","3","759","759","0","test","14","3","1","30","750","90","false","rigged_win","","","",""
"966","","pre_stim","single-stim-button","176","306043","0.0-14.3-0.3","columbia-card-task-hot","false","0","16","966","966","0","test","14","4","1","30","750","120","false","rigged_win","","","",""
"486","","pre_stim","single-stim-button","177","306531","0.0-14.4-0.4","columbia-card-task-hot","false","0","8","486","486","0","test","14","5","1","30","750","150","false","rigged_win","","","",""
"559","","pre_stim","single-stim-button","178","307091","0.0-14.5-0.5","columbia-card-task-hot","false","0","7","559","559","0","test","14","6","1","30","750","180","false","rigged_win","","","",""
"727","","pre_stim","single-stim-button","179","307819","0.0-14.6-0.6","columbia-card-task-hot","false","0","15","727","727","0","test","14","7","1","30","750","210","false","rigged_win","","","",""
"1567","","pre_stim","single-stim-button","180","309387","0.0-14.7-0.7","columbia-card-task-hot","false","0","4","1567","1567","0","test","14","8","1","30","750","240","false","rigged_win","","","",""
"966","","pre_stim","single-stim-button","181","310355","0.0-14.8-0.8","columbia-card-task-hot","false","0","24","966","966","0","test","14","9","1","30","750","270","false","rigged_win","","","",""
"679","","pre_stim","single-stim-button","182","311035","0.0-14.9-0.9","columbia-card-task-hot","false","0","32","679","679","0","test","14","10","1","30","750","300","false","rigged_win","","","",""
"990","","pre_stim","single-stim-button","183","312027","0.0-14.10-0.10","columbia-card-task-hot","false","0","9","990","990","0","test","14","11","1","30","750","330","false","rigged_win","","","",""
"551","","pre_stim","single-stim-button","184","312579","0.0-14.11-0.11","columbia-card-task-hot","false","0","17","551","551","0","test","14","12","1","30","750","360","false","rigged_win","","","",""
"1070","","pre_stim","single-stim-button","185","313651","0.0-14.12-0.12","columbia-card-task-hot","false","0","11","1070","1070","0","test","14","13","1","30","750","390","false","rigged_win","","","",""
"1806","","pre_stim","single-stim-button","186","315459","0.0-14.13-0.13","columbia-card-task-hot","false","0","30","1806","1806","0","test","14","14","1","30","750","420","false","rigged_win","","","",""
"1071","","pre_stim","single-stim-button","187","316531","0.0-14.14-0.14","columbia-card-task-hot","false","0","14","1071","1071","0","test","14","15","1","30","750","450","false","rigged_win","","","",""
"2886","","pre_stim","single-stim-button","188","319419","0.0-14.15-0.15","columbia-card-task-hot","false","0","turnButton","2886","2886","0","test","14","15","1","30","750","450","false","rigged_win","","","",""
"3047","","pre_stim","single-stim-button","189","322467","0.0-14.16-0.16","columbia-card-task-hot","false","0","collectButton","3047","3047","0","test","14","16","1","30","750","450","false","rigged_win","","","",""
"6423","","pre_stim","single-stim-button","190","328891","0.0-15.0-0.0","columbia-card-task-hot","false","0","6","6423","6423","0","test","15","1","1","30","750","30","false","rigged_win","","","",""
"663","","pre_stim","single-stim-button","191","329555","0.0-15.1-0.1","columbia-card-task-hot","false","0","5","663","663","0","test","15","2","1","30","750","60","false","rigged_win","","","",""
"471","","pre_stim","single-stim-button","192","330027","0.0-15.2-0.2","columbia-card-task-hot","false","0","4","471","471","0","test","15","3","1","30","750","90","false","rigged_win","","","",""
"775","","pre_stim","single-stim-button","193","330803","0.0-15.3-0.3","columbia-card-task-hot","false","0","3","775","775","0","test","15","4","1","30","750","120","false","rigged_win","","","",""
"702","","pre_stim","single-stim-button","194","331507","0.0-15.4-0.4","columbia-card-task-hot","false","0","28","702","702","0","test","15","5","1","30","750","150","false","rigged_win","","","",""
"423","","pre_stim","single-stim-button","195","331931","0.0-15.5-0.5","columbia-card-task-hot","false","0","29","423","423","0","test","15","6","1","30","750","180","false","rigged_win","","","",""
"430","","pre_stim","single-stim-button","196","332363","0.0-15.6-0.6","columbia-card-task-hot","false","0","30","430","430","0","test","15","7","1","30","750","210","false","rigged_win","","","",""
"375","","pre_stim","single-stim-button","197","332739","0.0-15.7-0.7","columbia-card-task-hot","false","0","31","375","375","0","test","15","8","1","30","750","240","false","rigged_win","","","",""
"727","","pre_stim","single-stim-button","198","333467","0.0-15.8-0.8","columbia-card-task-hot","false","0","27","727","727","0","test","15","9","1","30","750","270","false","rigged_win","","","",""
"935","","pre_stim","single-stim-button","199","334403","0.0-15.9-0.9","columbia-card-task-hot","false","0","9","935","935","0","test","15","10","1","30","750","300","false","rigged_win","","","",""
"823","","pre_stim","single-stim-button","200","335227","0.0-15.10-0.10","columbia-card-task-hot","false","0","13","823","823","0","test","15","11","1","30","750","330","false","rigged_win","","","",""
"1151","","pre_stim","single-stim-button","201","336379","0.0-15.11-0.11","columbia-card-task-hot","false","0","11","1151","1151","0","test","15","12","1","30","750","360","false","rigged_win","","","",""
"870","","pre_stim","single-stim-button","202","337251","0.0-15.12-0.12","columbia-card-task-hot","false","0","18","870","870","0","test","15","13","1","30","750","390","false","rigged_win","","","",""
"878","","pre_stim","single-stim-button","203","338131","0.0-15.13-0.13","columbia-card-task-hot","false","0","25","878","878","0","test","15","14","1","30","750","420","false","rigged_win","","","",""
"1471","","pre_stim","single-stim-button","204","339603","0.0-15.14-0.14","columbia-card-task-hot","false","0","16","1471","1471","0","test","15","15","1","30","750","450","false","rigged_win","","","",""
"1967","","pre_stim","single-stim-button","205","341571","0.0-15.15-0.15","columbia-card-task-hot","false","0","20","1967","1967","0","test","15","16","1","30","750","480","false","rigged_win","","","",""
"1031","","pre_stim","single-stim-button","206","342603","0.0-15.16-0.16","columbia-card-task-hot","false","0","turnButton","1031","1031","0","test","15","16","1","30","750","480","false","rigged_win","","","",""
"2415","","pre_stim","single-stim-button","207","345020","0.0-15.17-0.17","columbia-card-task-hot","false","0","collectButton","2415","2415","0","test","15","17","1","30","750","480","false","rigged_win","","","",""
"6101","","pre_stim","single-stim-button","208","351123","0.0-16.0-0.0","columbia-card-task-hot","false","0","8","6101","6101","0","test","16","1","3","30","250","30","false","rigged_win","","","",""
"447","","pre_stim","single-stim-button","209","351572","0.0-16.1-0.1","columbia-card-task-hot","false","0","7","447","447","0","test","16","2","3","30","250","60","false","rigged_win","","","",""
"455","","pre_stim","single-stim-button","210","352027","0.0-16.2-0.2","columbia-card-task-hot","false","0","16","455","455","0","test","16","3","3","30","250","90","false","rigged_win","","","",""
"414","","pre_stim","single-stim-button","211","352443","0.0-16.3-0.3","columbia-card-task-hot","false","0","24","414","414","0","test","16","4","3","30","250","120","false","rigged_win","","","",""
"414","","pre_stim","single-stim-button","212","352859","0.0-16.4-0.4","columbia-card-task-hot","false","0","32","414","414","0","test","16","5","3","30","250","150","false","rigged_win","","","",""
"375","","pre_stim","single-stim-button","213","353235","0.0-16.5-0.5","columbia-card-task-hot","false","0","31","375","375","0","test","16","6","3","30","250","180","false","rigged_win","","","",""
"367","","pre_stim","single-stim-button","214","353603","0.0-16.6-0.6","columbia-card-task-hot","false","0","23","367","367","0","test","16","7","3","30","250","210","false","rigged_win","","","",""
"1262","","pre_stim","single-stim-button","215","354867","0.0-16.7-0.7","columbia-card-task-hot","false","0","9","1262","1262","0","test","16","8","3","30","250","240","false","rigged_win","","","",""
"759","","pre_stim","single-stim-button","216","355627","0.0-16.8-0.8","columbia-card-task-hot","false","0","12","759","759","0","test","16","9","3","30","250","270","false","rigged_win","","","",""
"462","","pre_stim","single-stim-button","217","356091","0.0-16.9-0.9","columbia-card-task-hot","false","0","4","462","462","0","test","16","10","3","30","250","300","false","rigged_win","","","",""
"2630","","pre_stim","single-stim-button","218","358723","0.0-16.10-0.10","columbia-card-task-hot","false","0","27","2630","2630","0","test","16","11","3","30","250","330","false","rigged_win","","","",""
"1382","","pre_stim","single-stim-button","219","360107","0.0-16.11-0.11","columbia-card-task-hot","false","0","18","1382","1382","0","test","16","12","3","30","250","360","false","rigged_win","","","",""
"1014","","pre_stim","single-stim-button","220","361123","0.0-16.12-0.12","columbia-card-task-hot","false","0","14","1014","1014","0","test","16","13","3","30","250","390","false","rigged_win","","","",""
"1350","","pre_stim","single-stim-button","221","362475","0.0-16.13-0.13","columbia-card-task-hot","false","0","30","1350","1350","0","test","16","14","3","30","250","420","false","rigged_win","","","",""
"2214","","pre_stim","single-stim-button","222","364691","0.0-16.14-0.14","columbia-card-task-hot","false","0","10","2214","2214","0","test","16","15","3","30","250","450","false","rigged_win","","","",""
"6182","","pre_stim","single-stim-button","223","370875","0.0-16.15-0.15","columbia-card-task-hot","false","0","26","6182","6182","0","test","16","16","3","30","250","480","false","rigged_win","","","",""
"1158","","pre_stim","single-stim-button","224","372035","0.0-16.16-0.16","columbia-card-task-hot","false","0","turnButton","1158","1158","0","test","16","16","3","30","250","480","false","rigged_win","","","",""
"2399","","pre_stim","single-stim-button","225","374435","0.0-16.17-0.17","columbia-card-task-hot","false","0","collectButton","2399","2399","0","test","16","17","3","30","250","480","false","rigged_win","","","",""
"6351","","pre_stim","single-stim-button","226","380787","0.0-17.0-0.0","columbia-card-task-hot","false","0","18","6351","6351","0","test","17","1","1","10","750","10","false","rigged_win","","","",""
"462","","pre_stim","single-stim-button","227","381251","0.0-17.1-0.1","columbia-card-task-hot","false","0","26","462","462","0","test","17","2","1","10","750","20","false","rigged_win","","","",""
"526","","pre_stim","single-stim-button","228","381778","0.0-17.2-0.2","columbia-card-task-hot","false","0","17","526","526","0","test","17","3","1","10","750","30","false","rigged_win","","","",""
"439","","pre_stim","single-stim-button","229","382219","0.0-17.3-0.3","columbia-card-task-hot","false","0","25","439","439","0","test","17","4","1","10","750","40","false","rigged_win","","","",""
"807","","pre_stim","single-stim-button","230","383027","0.0-17.4-0.4","columbia-card-task-hot","false","0","32","807","807","0","test","17","5","1","10","750","50","false","rigged_win","","","",""
"478","","pre_stim","single-stim-button","231","383507","0.0-17.5-0.5","columbia-card-task-hot","false","0","24","478","478","0","test","17","6","1","10","750","60","false","rigged_win","","","",""
"438","","pre_stim","single-stim-button","232","383947","0.0-17.6-0.6","columbia-card-task-hot","false","0","23","438","438","0","test","17","7","1","10","750","70","false","rigged_win","","","",""
"447","","pre_stim","single-stim-button","233","384395","0.0-17.7-0.7","columbia-card-task-hot","false","0","15","447","447","0","test","17","8","1","10","750","80","false","rigged_win","","","",""
"494","","pre_stim","single-stim-button","234","384891","0.0-17.8-0.8","columbia-card-task-hot","false","0","7","494","494","0","test","17","9","1","10","750","90","false","rigged_win","","","",""
"622","","pre_stim","single-stim-button","235","385515","0.0-17.9-0.9","columbia-card-task-hot","false","0","6","622","622","0","test","17","10","1","10","750","100","false","rigged_win","","","",""
"974","","pre_stim","single-stim-button","236","386491","0.0-17.10-0.10","columbia-card-task-hot","false","0","5","974","974","0","test","17","11","1","10","750","110","false","rigged_win","","","",""
"550","","pre_stim","single-stim-button","237","387043","0.0-17.11-0.11","columbia-card-task-hot","false","0","14","550","550","0","test","17","12","1","10","750","120","false","rigged_win","","","",""
"1070","","pre_stim","single-stim-button","238","388115","0.0-17.12-0.12","columbia-card-task-hot","false","0","22","1070","1070","0","test","17","13","1","10","750","130","false","rigged_win","","","",""
"759","","pre_stim","single-stim-button","239","388875","0.0-17.13-0.13","columbia-card-task-hot","false","0","30","759","759","0","test","17","14","1","10","750","140","false","rigged_win","","","",""
"991","","pre_stim","single-stim-button","240","389867","0.0-17.14-0.14","columbia-card-task-hot","false","0","16","991","991","0","test","17","15","1","10","750","150","false","rigged_win","","","",""
"2030","","pre_stim","single-stim-button","241","391899","0.0-17.15-0.15","columbia-card-task-hot","false","0","29","2030","2030","0","test","17","16","1","10","750","160","false","rigged_win","","","",""
"918","","pre_stim","single-stim-button","242","392818","0.0-17.16-0.16","columbia-card-task-hot","false","0","19","918","918","0","test","17","17","1","10","750","170","false","rigged_win","","","",""
"614","","pre_stim","single-stim-button","243","393435","0.0-17.17-0.17","columbia-card-task-hot","false","0","10","614","614","0","test","17","18","1","10","750","180","false","rigged_win","","","",""
"599","","pre_stim","single-stim-button","244","394035","0.0-17.18-0.18","columbia-card-task-hot","false","0","9","599","599","0","test","17","19","1","10","750","190","false","rigged_win","","","",""
"2181","","pre_stim","single-stim-button","245","396219","0.0-17.19-0.19","columbia-card-task-hot","false","0","13","2181","2181","0","test","17","20","1","10","750","200","false","rigged_win","","","",""
"1742","","pre_stim","single-stim-button","246","397963","0.0-17.20-0.20","columbia-card-task-hot","false","0","4","1742","1742","0","test","17","21","1","10","750","210","false","rigged_win","","","",""
"3414","","pre_stim","single-stim-button","247","401379","0.0-17.21-0.21","columbia-card-task-hot","false","0","turnButton","3414","3414","0","test","17","21","1","10","750","210","false","rigged_win","","","",""
"3343","","pre_stim","single-stim-button","248","404723","0.0-17.22-0.22","columbia-card-task-hot","false","0","collectButton","3343","3343","0","test","17","22","1","10","750","210","false","rigged_win","","","",""
"6134","","pre_stim","single-stim-button","249","410859","0.0-18.0-0.0","columbia-card-task-hot","false","0","10","6134","6134","0","test","18","1","3","30","250","30","false","rigged_win","","","",""
"470","","pre_stim","single-stim-button","250","411331","0.0-18.1-0.1","columbia-card-task-hot","false","0","9","470","470","0","test","18","2","3","30","250","60","false","rigged_win","","","",""
"406","","pre_stim","single-stim-button","251","411739","0.0-18.2-0.2","columbia-card-task-hot","false","0","17","406","406","0","test","18","3","3","30","250","90","false","rigged_win","","","",""
"382","","pre_stim","single-stim-button","252","412123","0.0-18.3-0.3","columbia-card-task-hot","false","0","18","382","382","0","test","18","4","3","30","250","120","false","rigged_win","","","",""
"583","","pre_stim","single-stim-button","253","412707","0.0-18.4-0.4","columbia-card-task-hot","false","0","26","583","583","0","test","18","5","3","30","250","150","false","rigged_win","","","",""
"478","","pre_stim","single-stim-button","254","413187","0.0-18.5-0.5","columbia-card-task-hot","false","0","25","478","478","0","test","18","6","3","30","250","180","false","rigged_win","","","",""
"3118","","pre_stim","single-stim-button","255","416307","0.0-18.6-0.6","columbia-card-task-hot","false","0","7","3118","3118","0","test","18","7","3","30","250","210","false","rigged_win","","","",""
"511","","pre_stim","single-stim-button","256","416819","0.0-18.7-0.7","columbia-card-task-hot","false","0","6","511","511","0","test","18","8","3","30","250","240","false","rigged_win","","","",""
"662","","pre_stim","single-stim-button","257","417483","0.0-18.8-0.8","columbia-card-task-hot","false","0","15","662","662","0","test","18","9","3","30","250","270","false","rigged_win","","","",""
"463","","pre_stim","single-stim-button","258","417947","0.0-18.9-0.9","columbia-card-task-hot","false","0","14","463","463","0","test","18","10","3","30","250","300","false","rigged_win","","","",""
"1982","","pre_stim","single-stim-button","259","419930","0.0-18.10-0.10","columbia-card-task-hot","false","0","30","1982","1982","0","test","18","11","3","30","250","330","false","rigged_win","","","",""
"2175","","pre_stim","single-stim-button","260","422107","0.0-18.11-0.11","columbia-card-task-hot","false","0","22","2175","2175","0","test","18","12","3","30","250","360","false","rigged_win","","","",""
"1686","","pre_stim","single-stim-button","261","423794","0.0-18.12-0.12","columbia-card-task-hot","false","0","3","1686","1686","0","test","18","13","3","30","250","390","false","rigged_win","","","",""
"470","","pre_stim","single-stim-button","262","424266","0.0-18.13-0.13","columbia-card-task-hot","false","0","2","470","470","0","test","18","14","3","30","250","420","false","rigged_win","","","",""
"3309","","pre_stim","single-stim-button","263","427578","0.0-18.14-0.14","columbia-card-task-hot","false","0","28","3309","3309","0","test","18","15","3","30","250","450","false","rigged_win","","","",""
"2079","","pre_stim","single-stim-button","264","429658","0.0-18.15-0.15","columbia-card-task-hot","false","0","16","2079","2079","0","test","18","16","3","30","250","480","false","rigged_win","","","",""
"2583","","pre_stim","single-stim-button","265","432242","0.0-18.16-0.16","columbia-card-task-hot","false","0","13","2583","2583","0","test","18","17","3","30","250","510","false","rigged_win","","","",""
"990","","pre_stim","single-stim-button","266","433234","0.0-18.17-0.17","columbia-card-task-hot","false","0","turnButton","990","990","0","test","18","17","3","30","250","510","false","rigged_win","","","",""
"3270","","pre_stim","single-stim-button","267","436506","0.0-18.18-0.18","columbia-card-task-hot","false","0","collectButton","3270","3270","0","test","18","18","3","30","250","510","false","rigged_win","","","",""
"6302","","pre_stim","single-stim-button","268","442811","0.0-19.0-0.0","columbia-card-task-hot","false","0","5","6302","6302","0","test","19","1","1","10","250","10","false","rigged_win","","","",""
"406","","pre_stim","single-stim-button","269","443218","0.0-19.1-0.1","columbia-card-task-hot","false","0","4","406","406","0","test","19","2","1","10","250","20","false","rigged_win","","","",""
"406","","pre_stim","single-stim-button","270","443626","0.0-19.2-0.2","columbia-card-task-hot","false","0","3","406","406","0","test","19","3","1","10","250","30","false","rigged_win","","","",""
"350","","pre_stim","single-stim-button","271","443978","0.0-19.3-0.3","columbia-card-task-hot","false","0","11","350","350","0","test","19","4","1","10","250","40","false","rigged_win","","","",""
"367","","pre_stim","single-stim-button","272","444347","0.0-19.4-0.4","columbia-card-task-hot","false","0","12","367","367","0","test","19","5","1","10","250","50","false","rigged_win","","","",""
"502","","pre_stim","single-stim-button","273","444851","0.0-19.5-0.5","columbia-card-task-hot","false","0","13","502","502","0","test","19","6","1","10","250","60","false","rigged_win","","","",""
"390","","pre_stim","single-stim-button","274","445242","0.0-19.6-0.6","columbia-card-task-hot","false","0","21","390","390","0","test","19","7","1","10","250","70","false","rigged_win","","","",""
"406","","pre_stim","single-stim-button","275","445650","0.0-19.7-0.7","columbia-card-task-hot","false","0","20","406","406","0","test","19","8","1","10","250","80","false","rigged_win","","","",""
"390","","pre_stim","single-stim-button","276","446042","0.0-19.8-0.8","columbia-card-task-hot","false","0","19","390","390","0","test","19","9","1","10","250","90","false","rigged_win","","","",""
"414","","pre_stim","single-stim-button","277","446458","0.0-19.9-0.9","columbia-card-task-hot","false","0","27","414","414","0","test","19","10","1","10","250","100","false","rigged_win","","","",""
"374","","pre_stim","single-stim-button","278","446834","0.0-19.10-0.10","columbia-card-task-hot","false","0","28","374","374","0","test","19","11","1","10","250","110","false","rigged_win","","","",""
"462","","pre_stim","single-stim-button","279","447298","0.0-19.11-0.11","columbia-card-task-hot","false","0","29","462","462","0","test","19","12","1","10","250","120","false","rigged_win","","","",""
"1366","","pre_stim","single-stim-button","280","448666","0.0-19.12-0.12","columbia-card-task-hot","false","0","22","1366","1366","0","test","19","13","1","10","250","130","false","rigged_win","","","",""
"446","","pre_stim","single-stim-button","281","449114","0.0-19.13-0.13","columbia-card-task-hot","false","0","31","446","446","0","test","19","14","1","10","250","140","false","rigged_win","","","",""
"454","","pre_stim","single-stim-button","282","449570","0.0-19.14-0.14","columbia-card-task-hot","false","0","30","454","454","0","test","19","15","1","10","250","150","false","rigged_win","","","",""
"3319","","pre_stim","single-stim-button","283","452891","0.0-19.15-0.15","columbia-card-task-hot","false","0","16","3319","3319","0","test","19","16","1","10","250","160","false","rigged_win","","","",""
"454","","pre_stim","single-stim-button","284","453346","0.0-19.16-0.16","columbia-card-task-hot","false","0","24","454","454","0","test","19","17","1","10","250","170","false","rigged_win","","","",""
"1166","","pre_stim","single-stim-button","285","454514","0.0-19.17-0.17","columbia-card-task-hot","false","0","9","1166","1166","0","test","19","18","1","10","250","180","false","rigged_win","","","",""
"4094","","pre_stim","single-stim-button","286","458610","0.0-19.18-0.18","columbia-card-task-hot","false","0","6","4094","4094","0","test","19","19","1","10","250","190","false","rigged_win","","","",""
"710","","pre_stim","single-stim-button","287","459322","0.0-19.19-0.19","columbia-card-task-hot","false","0","7","710","710","0","test","19","20","1","10","250","200","false","rigged_win","","","",""
"2198","","pre_stim","single-stim-button","288","461522","0.0-19.20-0.20","columbia-card-task-hot","false","0","17","2198","2198","0","test","19","21","1","10","250","210","false","rigged_win","","","",""
"3942","","pre_stim","single-stim-button","289","465466","0.0-19.21-0.21","columbia-card-task-hot","false","0","turnButton","3942","3942","0","test","19","21","1","10","250","210","false","rigged_win","","","",""
"3134","","pre_stim","single-stim-button","290","468602","0.0-19.22-0.22","columbia-card-task-hot","false","0","collectButton","3134","3134","0","test","19","22","1","10","250","210","false","rigged_win","","","",""
"5775","","pre_stim","single-stim-button","291","474379","0.0-20.0-0.0","columbia-card-task-hot","false","0","15","5775","5775","0","test","20","1","1","10","250","10","false","rigged_loss","","","",""
"566","","pre_stim","single-stim-button","292","474946","0.0-20.1-0.1","columbia-card-task-hot","false","0","6","566","566","0","test","20","2","1","10","250","20","false","rigged_loss","","","",""
"526","","pre_stim","single-stim-button","293","475474","0.0-20.2-0.2","columbia-card-task-hot","false","0","5","526","526","0","test","20","3","1","10","250","30","false","rigged_loss","","","",""
"526","","pre_stim","single-stim-button","294","476003","0.0-20.3-0.3","columbia-card-task-hot","false","0","4","526","526","0","test","20","4","1","10","250","40","false","rigged_loss","","","",""
"574","","pre_stim","single-stim-button","295","476578","0.0-20.4-0.4","columbia-card-task-hot","false","0","12","574","574","0","test","20","5","1","10","250","50","false","rigged_loss","","","",""
"614","","pre_stim","single-stim-button","296","477194","0.0-20.5-0.5","columbia-card-task-hot","false","0","19","614","614","0","test","20","6","1","10","250","60","false","rigged_loss","","","",""
"590","","pre_stim","single-stim-button","297","477786","0.0-20.6-0.6","columbia-card-task-hot","false","0","18","590","590","0","test","20","7","1","10","250","70","false","rigged_loss","","","",""
"590","","pre_stim","single-stim-button","298","478378","0.0-20.7-0.7","columbia-card-task-hot","false","0","25","590","590","0","test","20","8","1","10","250","80","false","rigged_loss","","","",""
"406","","pre_stim","single-stim-button","299","478786","0.0-20.8-0.8","columbia-card-task-hot","false","0","26","406","406","0","test","20","9","1","10","250","-170","true","rigged_loss","","","",""
"3582","","pre_stim","single-stim-button","300","482370","0.0-20.9-0.9","columbia-card-task-hot","false","0","collectButton","3582","3582","0","test","20","10","1","10","250","-170","true","rigged_loss","","","",""
"17277","{""Q0"":""Versuchen so viele Punkte wie mglich"",""Q1"":""""}","post task questions","survey-text","301","499651","0.0-21.0","columbia-card-task-hot","false","0","","","","","","","","","","","","","","true","0","",""
"3611","","","poldrack-text","302","504275","0.0-22.0","columbia-card-task-hot","false","0","","","3611","1000","","","","","","","","","","","","<div class = centerbox><p class = center-block-text>Finished with this task.</p></div>","17"
