"rt","responses","trial_id","trial_type","trial_index","time_elapsed","internal_node_id","exp_id","full_screen","focus_shifts","mouse_click","stim_duration","block_duration","timing_post_trial","exp_stage","which_round","num_click_in_round","num_loss_cards","gain_amount","loss_amount","round_points","clicked_on_loss_card","round_type","credit_var","performance_var","text","key_press"
"6634","{""Q0"":""ITsa5""}","pre task questions","survey-text","0","6636","0.0-0.0","columbia-card-task-hot","true","0","","","","","","","","","","","","","","","","",""
"5845","","pre_stim","single-stim-button","1","13484","0.0-1.0-0.0","columbia-card-task-hot","true","0","5","5845","5845","0","test","1","1","3","10","750","10","false","rigged_loss","","","",""
"622","","pre_stim","single-stim-button","2","14107","0.0-1.1-0.1","columbia-card-task-hot","true","0","4","622","622","0","test","1","2","3","10","750","20","false","rigged_loss","","","",""
"615","","pre_stim","single-stim-button","3","14723","0.0-1.2-0.2","columbia-card-task-hot","true","0","3","615","615","0","test","1","3","3","10","750","30","false","rigged_loss","","","",""
"711","","pre_stim","single-stim-button","4","15435","0.0-1.3-0.3","columbia-card-task-hot","true","0","11","711","711","0","test","1","4","3","10","750","40","false","rigged_loss","","","",""
"607","","pre_stim","single-stim-button","5","16043","0.0-1.4-0.4","columbia-card-task-hot","true","0","2","607","607","0","test","1","5","3","10","750","50","false","rigged_loss","","","",""
"648","","pre_stim","single-stim-button","6","16691","0.0-1.5-0.5","columbia-card-task-hot","true","0","1","648","648","0","test","1","6","3","10","750","60","false","rigged_loss","","","",""
"1223","","pre_stim","single-stim-button","7","17916","0.0-1.6-0.6","columbia-card-task-hot","true","0","7","1223","1223","0","test","1","7","3","10","750","70","false","rigged_loss","","","",""
"775","","pre_stim","single-stim-button","8","18691","0.0-1.7-0.7","columbia-card-task-hot","true","0","15","775","775","0","test","1","8","3","10","750","80","false","rigged_loss","","","",""
"1143","","pre_stim","single-stim-button","9","19835","0.0-1.8-0.8","columbia-card-task-hot","true","0","13","1143","1143","0","test","1","9","3","10","750","90","false","rigged_loss","","","",""
"664","","pre_stim","single-stim-button","10","20499","0.0-1.9-0.9","columbia-card-task-hot","true","0","14","664","664","0","test","1","10","3","10","750","100","false","rigged_loss","","","",""
"847","","pre_stim","single-stim-button","11","21347","0.0-1.10-0.10","columbia-card-task-hot","true","0","22","847","847","0","test","1","11","3","10","750","110","false","rigged_loss","","","",""
"671","","pre_stim","single-stim-button","12","22019","0.0-1.11-0.11","columbia-card-task-hot","true","0","20","671","671","0","test","1","12","3","10","750","120","false","rigged_loss","","","",""
"655","","pre_stim","single-stim-button","13","22675","0.0-1.12-0.12","columbia-card-task-hot","true","0","29","655","655","0","test","1","13","3","10","750","130","false","rigged_loss","","","",""
"599","","pre_stim","single-stim-button","14","23275","0.0-1.13-0.13","columbia-card-task-hot","true","0","30","599","599","0","test","1","14","3","10","750","140","false","rigged_loss","","","",""
"1215","","pre_stim","single-stim-button","15","24491","0.0-1.14-0.14","columbia-card-task-hot","true","0","21","1215","1215","0","test","1","15","3","10","750","150","false","rigged_loss","","","",""
"1439","","pre_stim","single-stim-button","16","25932","0.0-1.15-0.15","columbia-card-task-hot","true","0","28","1439","1439","0","test","1","16","3","10","750","160","false","rigged_loss","","","",""
"783","","pre_stim","single-stim-button","17","26715","0.0-1.16-0.16","columbia-card-task-hot","true","0","12","783","783","0","test","1","17","3","10","750","170","false","rigged_loss","","","",""
"1591","","pre_stim","single-stim-button","18","28308","0.0-1.17-0.17","columbia-card-task-hot","true","0","turnButton","1591","1591","0","test","1","17","3","10","750","170","false","rigged_loss","","","",""
"4527","","pre_stim","single-stim-button","19","32835","0.0-1.18-0.18","columbia-card-task-hot","true","0","collectButton","4527","4527","0","test","1","18","3","10","750","170","false","rigged_loss","","","",""
"6224","","pre_stim","single-stim-button","20","39060","0.0-2.0-0.0","columbia-card-task-hot","true","0","12","6224","6224","0","test","2","1","3","30","250","30","false","rigged_loss","","","",""
"591","","pre_stim","single-stim-button","21","39651","0.0-2.1-0.1","columbia-card-task-hot","true","0","4","591","591","0","test","2","2","3","30","250","60","false","rigged_loss","","","",""
"607","","pre_stim","single-stim-button","22","40260","0.0-2.2-0.2","columbia-card-task-hot","true","0","5","607","607","0","test","2","3","3","30","250","90","false","rigged_loss","","","",""
"575","","pre_stim","single-stim-button","23","40835","0.0-2.3-0.3","columbia-card-task-hot","true","0","6","575","575","0","test","2","4","3","30","250","120","false","rigged_loss","","","",""
"687","","pre_stim","single-stim-button","24","41523","0.0-2.4-0.4","columbia-card-task-hot","true","0","14","687","687","0","test","2","5","3","30","250","150","false","rigged_loss","","","",""
"807","","pre_stim","single-stim-button","25","42331","0.0-2.5-0.5","columbia-card-task-hot","true","0","20","807","807","0","test","2","6","3","30","250","180","false","rigged_loss","","","",""
"551","","pre_stim","single-stim-button","26","42883","0.0-2.6-0.6","columbia-card-task-hot","true","0","21","551","551","0","test","2","7","3","30","250","210","false","rigged_loss","","","",""
"831","","pre_stim","single-stim-button","27","43715","0.0-2.7-0.7","columbia-card-task-hot","true","0","22","831","831","0","test","2","8","3","30","250","240","false","rigged_loss","","","",""
"1119","","pre_stim","single-stim-button","28","44835","0.0-2.8-0.8","columbia-card-task-hot","true","0","19","1119","1119","0","test","2","9","3","30","250","270","false","rigged_loss","","","",""
"679","","pre_stim","single-stim-button","29","45516","0.0-2.9-0.9","columbia-card-task-hot","true","0","27","679","679","0","test","2","10","3","30","250","300","false","rigged_loss","","","",""
"679","","pre_stim","single-stim-button","30","46195","0.0-2.10-0.10","columbia-card-task-hot","true","0","29","679","679","0","test","2","11","3","30","250","50","true","rigged_loss","","","",""
"3751","","pre_stim","single-stim-button","31","49948","0.0-2.11-0.11","columbia-card-task-hot","true","0","collectButton","3751","3751","0","test","2","12","3","30","250","50","true","rigged_loss","","","",""
"6279","","pre_stim","single-stim-button","32","56228","0.0-3.0-0.0","columbia-card-task-hot","true","0","1","6279","6279","0","test","3","1","1","10","250","10","false","rigged_win","","","",""
"375","","pre_stim","single-stim-button","33","56604","0.0-3.1-0.1","columbia-card-task-hot","true","0","2","375","375","0","test","3","2","1","10","250","20","false","rigged_win","","","",""
"391","","pre_stim","single-stim-button","34","56995","0.0-3.2-0.2","columbia-card-task-hot","true","0","3","391","391","0","test","3","3","1","10","250","30","false","rigged_win","","","",""
"367","","pre_stim","single-stim-button","35","57363","0.0-3.3-0.3","columbia-card-task-hot","true","0","4","367","367","0","test","3","4","1","10","250","40","false","rigged_win","","","",""
"360","","pre_stim","single-stim-button","36","57724","0.0-3.4-0.4","columbia-card-task-hot","true","0","5","360","360","0","test","3","5","1","10","250","50","false","rigged_win","","","",""
"383","","pre_stim","single-stim-button","37","58107","0.0-3.5-0.5","columbia-card-task-hot","true","0","6","383","383","0","test","3","6","1","10","250","60","false","rigged_win","","","",""
"375","","pre_stim","single-stim-button","38","58483","0.0-3.6-0.6","columbia-card-task-hot","true","0","7","375","375","0","test","3","7","1","10","250","70","false","rigged_win","","","",""
"415","","pre_stim","single-stim-button","39","58899","0.0-3.7-0.7","columbia-card-task-hot","true","0","8","415","415","0","test","3","8","1","10","250","80","false","rigged_win","","","",""
"1047","","pre_stim","single-stim-button","40","59947","0.0-3.8-0.8","columbia-card-task-hot","true","0","9","1047","1047","0","test","3","9","1","10","250","90","false","rigged_win","","","",""
"414","","pre_stim","single-stim-button","41","60363","0.0-3.9-0.9","columbia-card-task-hot","true","0","10","414","414","0","test","3","10","1","10","250","100","false","rigged_win","","","",""
"431","","pre_stim","single-stim-button","42","60794","0.0-3.10-0.10","columbia-card-task-hot","true","0","11","431","431","0","test","3","11","1","10","250","110","false","rigged_win","","","",""
"400","","pre_stim","single-stim-button","43","61195","0.0-3.11-0.11","columbia-card-task-hot","true","0","12","400","400","0","test","3","12","1","10","250","120","false","rigged_win","","","",""
"406","","pre_stim","single-stim-button","44","61603","0.0-3.12-0.12","columbia-card-task-hot","true","0","13","406","406","0","test","3","13","1","10","250","130","false","rigged_win","","","",""
"416","","pre_stim","single-stim-button","45","62019","0.0-3.13-0.13","columbia-card-task-hot","true","0","14","416","416","0","test","3","14","1","10","250","140","false","rigged_win","","","",""
"503","","pre_stim","single-stim-button","46","62524","0.0-3.14-0.14","columbia-card-task-hot","true","0","15","503","503","0","test","3","15","1","10","250","150","false","rigged_win","","","",""
"423","","pre_stim","single-stim-button","47","62947","0.0-3.15-0.15","columbia-card-task-hot","true","0","16","423","423","0","test","3","16","1","10","250","160","false","rigged_win","","","",""
"1184","","pre_stim","single-stim-button","48","64131","0.0-3.16-0.16","columbia-card-task-hot","true","0","25","1184","1184","0","test","3","17","1","10","250","170","false","rigged_win","","","",""
"783","","pre_stim","single-stim-button","49","64916","0.0-3.17-0.17","columbia-card-task-hot","true","0","18","783","783","0","test","3","18","1","10","250","180","false","rigged_win","","","",""
"591","","pre_stim","single-stim-button","50","65507","0.0-3.18-0.18","columbia-card-task-hot","true","0","17","591","591","0","test","3","19","1","10","250","190","false","rigged_win","","","",""
"479","","pre_stim","single-stim-button","51","65988","0.0-3.19-0.19","columbia-card-task-hot","true","0","26","479","479","0","test","3","20","1","10","250","200","false","rigged_win","","","",""
"1119","","pre_stim","single-stim-button","52","67107","0.0-3.20-0.20","columbia-card-task-hot","true","0","19","1119","1119","0","test","3","21","1","10","250","210","false","rigged_win","","","",""
"471","","pre_stim","single-stim-button","53","67580","0.0-3.21-0.21","columbia-card-task-hot","true","0","27","471","471","0","test","3","22","1","10","250","220","false","rigged_win","","","",""
"1135","","pre_stim","single-stim-button","54","68715","0.0-3.22-0.22","columbia-card-task-hot","true","0","20","1135","1135","0","test","3","23","1","10","250","230","false","rigged_win","","","",""
"543","","pre_stim","single-stim-button","55","69259","0.0-3.23-0.23","columbia-card-task-hot","true","0","28","543","543","0","test","3","24","1","10","250","240","false","rigged_win","","","",""
"1063","","pre_stim","single-stim-button","56","70323","0.0-3.24-0.24","columbia-card-task-hot","true","0","24","1063","1063","0","test","3","25","1","10","250","250","false","rigged_win","","","",""
"479","","pre_stim","single-stim-button","57","70803","0.0-3.25-0.25","columbia-card-task-hot","true","0","32","479","479","0","test","3","26","1","10","250","260","false","rigged_win","","","",""
"2655","","pre_stim","single-stim-button","58","73459","0.0-3.26-0.26","columbia-card-task-hot","true","0","turnButton","2655","2655","0","test","3","26","1","10","250","260","false","rigged_win","","","",""
"3703","","pre_stim","single-stim-button","59","77163","0.0-3.27-0.27","columbia-card-task-hot","true","0","collectButton","3703","3703","0","test","3","27","1","10","250","260","false","rigged_win","","","",""
"6327","","pre_stim","single-stim-button","60","83492","0.0-4.0-0.0","columbia-card-task-hot","true","0","8","6327","6327","0","test","4","1","1","30","750","30","false","rigged_win","","","",""
"519","","pre_stim","single-stim-button","61","84011","0.0-4.1-0.1","columbia-card-task-hot","true","0","16","519","519","0","test","4","2","1","30","750","60","false","rigged_win","","","",""
"527","","pre_stim","single-stim-button","62","84539","0.0-4.2-0.2","columbia-card-task-hot","true","0","24","527","527","0","test","4","3","1","30","750","90","false","rigged_win","","","",""
"455","","pre_stim","single-stim-button","63","84995","0.0-4.3-0.3","columbia-card-task-hot","true","0","32","455","455","0","test","4","4","1","30","750","120","false","rigged_win","","","",""
"415","","pre_stim","single-stim-button","64","85412","0.0-4.4-0.4","columbia-card-task-hot","true","0","31","415","415","0","test","4","5","1","30","750","150","false","rigged_win","","","",""
"1271","","pre_stim","single-stim-button","65","86683","0.0-4.5-0.5","columbia-card-task-hot","true","0","7","1271","1271","0","test","4","6","1","30","750","180","false","rigged_win","","","",""
"479","","pre_stim","single-stim-button","66","87163","0.0-4.6-0.6","columbia-card-task-hot","true","0","15","479","479","0","test","4","7","1","30","750","210","false","rigged_win","","","",""
"447","","pre_stim","single-stim-button","67","87611","0.0-4.7-0.7","columbia-card-task-hot","true","0","23","447","447","0","test","4","8","1","30","750","240","false","rigged_win","","","",""
"519","","pre_stim","single-stim-button","68","88131","0.0-4.8-0.8","columbia-card-task-hot","true","0","22","519","519","0","test","4","9","1","30","750","270","false","rigged_win","","","",""
"535","","pre_stim","single-stim-button","69","88667","0.0-4.9-0.9","columbia-card-task-hot","true","0","14","535","535","0","test","4","10","1","30","750","300","false","rigged_win","","","",""
"535","","pre_stim","single-stim-button","70","89204","0.0-4.10-0.10","columbia-card-task-hot","true","0","6","535","535","0","test","4","11","1","30","750","330","false","rigged_win","","","",""
"1023","","pre_stim","single-stim-button","71","90227","0.0-4.11-0.11","columbia-card-task-hot","true","0","30","1023","1023","0","test","4","12","1","30","750","360","false","rigged_win","","","",""
"1231","","pre_stim","single-stim-button","72","91459","0.0-4.12-0.12","columbia-card-task-hot","true","0","5","1231","1231","0","test","4","13","1","30","750","390","false","rigged_win","","","",""
"543","","pre_stim","single-stim-button","73","92003","0.0-4.13-0.13","columbia-card-task-hot","true","0","4","543","543","0","test","4","14","1","30","750","420","false","rigged_win","","","",""
"495","","pre_stim","single-stim-button","74","92499","0.0-4.14-0.14","columbia-card-task-hot","true","0","3","495","495","0","test","4","15","1","30","750","450","false","rigged_win","","","",""
"767","","pre_stim","single-stim-button","75","93267","0.0-4.15-0.15","columbia-card-task-hot","true","0","2","767","767","0","test","4","16","1","30","750","480","false","rigged_win","","","",""
"575","","pre_stim","single-stim-button","76","93843","0.0-4.16-0.16","columbia-card-task-hot","true","0","1","575","575","0","test","4","17","1","30","750","510","false","rigged_win","","","",""
"1423","","pre_stim","single-stim-button","77","95267","0.0-4.17-0.17","columbia-card-task-hot","true","0","9","1423","1423","0","test","4","18","1","30","750","540","false","rigged_win","","","",""
"719","","pre_stim","single-stim-button","78","95988","0.0-4.18-0.18","columbia-card-task-hot","true","0","10","719","719","0","test","4","19","1","30","750","570","false","rigged_win","","","",""
"934","","pre_stim","single-stim-button","79","96923","0.0-4.19-0.19","columbia-card-task-hot","true","0","11","934","934","0","test","4","20","1","30","750","600","false","rigged_win","","","",""
"695","","pre_stim","single-stim-button","80","97619","0.0-4.20-0.20","columbia-card-task-hot","true","0","12","695","695","0","test","4","21","1","30","750","630","false","rigged_win","","","",""
"1183","","pre_stim","single-stim-button","81","98804","0.0-4.21-0.21","columbia-card-task-hot","true","0","13","1183","1183","0","test","4","22","1","30","750","660","false","rigged_win","","","",""
"3775","","pre_stim","single-stim-button","82","102579","0.0-4.22-0.22","columbia-card-task-hot","true","0","29","3775","3775","0","test","4","23","1","30","750","690","false","rigged_win","","","",""
"1871","","pre_stim","single-stim-button","83","104451","0.0-4.23-0.23","columbia-card-task-hot","true","0","turnButton","1871","1871","0","test","4","23","1","30","750","690","false","rigged_win","","","",""
"4911","","pre_stim","single-stim-button","84","109363","0.0-4.24-0.24","columbia-card-task-hot","true","0","collectButton","4911","4911","0","test","4","24","1","30","750","690","false","rigged_win","","","",""
"6287","","pre_stim","single-stim-button","85","115652","0.0-5.0-0.0","columbia-card-task-hot","true","0","8","6287","6287","0","test","5","1","1","30","250","30","false","rigged_win","","","",""
"431","","pre_stim","single-stim-button","86","116084","0.0-5.1-0.1","columbia-card-task-hot","true","0","7","431","431","0","test","5","2","1","30","250","60","false","rigged_win","","","",""
"423","","pre_stim","single-stim-button","87","116507","0.0-5.2-0.2","columbia-card-task-hot","true","0","6","423","423","0","test","5","3","1","30","250","90","false","rigged_win","","","",""
"463","","pre_stim","single-stim-button","88","116971","0.0-5.3-0.3","columbia-card-task-hot","true","0","5","463","463","0","test","5","4","1","30","250","120","false","rigged_win","","","",""
"415","","pre_stim","single-stim-button","89","117388","0.0-5.4-0.4","columbia-card-task-hot","true","0","4","415","415","0","test","5","5","1","30","250","150","false","rigged_win","","","",""
"415","","pre_stim","single-stim-button","90","117803","0.0-5.5-0.5","columbia-card-task-hot","true","0","3","415","415","0","test","5","6","1","30","250","180","false","rigged_win","","","",""
"406","","pre_stim","single-stim-button","91","118211","0.0-5.6-0.6","columbia-card-task-hot","true","0","2","406","406","0","test","5","7","1","30","250","210","false","rigged_win","","","",""
"480","","pre_stim","single-stim-button","92","118691","0.0-5.7-0.7","columbia-card-task-hot","true","0","1","480","480","0","test","5","8","1","30","250","240","false","rigged_win","","","",""
"1679","","pre_stim","single-stim-button","93","120371","0.0-5.8-0.8","columbia-card-task-hot","true","0","16","1679","1679","0","test","5","9","1","30","250","270","false","rigged_win","","","",""
"447","","pre_stim","single-stim-button","94","120819","0.0-5.9-0.9","columbia-card-task-hot","true","0","24","447","447","0","test","5","10","1","30","250","300","false","rigged_win","","","",""
"455","","pre_stim","single-stim-button","95","121275","0.0-5.10-0.10","columbia-card-task-hot","true","0","32","455","455","0","test","5","11","1","30","250","330","false","rigged_win","","","",""
"479","","pre_stim","single-stim-button","96","121755","0.0-5.11-0.11","columbia-card-task-hot","true","0","31","479","479","0","test","5","12","1","30","250","360","false","rigged_win","","","",""
"423","","pre_stim","single-stim-button","97","122179","0.0-5.12-0.12","columbia-card-task-hot","true","0","23","423","423","0","test","5","13","1","30","250","390","false","rigged_win","","","",""
"438","","pre_stim","single-stim-button","98","122619","0.0-5.13-0.13","columbia-card-task-hot","true","0","15","438","438","0","test","5","14","1","30","250","420","false","rigged_win","","","",""
"1287","","pre_stim","single-stim-button","99","123907","0.0-5.14-0.14","columbia-card-task-hot","true","0","14","1287","1287","0","test","5","15","1","30","250","450","false","rigged_win","","","",""
"447","","pre_stim","single-stim-button","100","124355","0.0-5.15-0.15","columbia-card-task-hot","true","0","13","447","447","0","test","5","16","1","30","250","480","false","rigged_win","","","",""
"463","","pre_stim","single-stim-button","101","124820","0.0-5.16-0.16","columbia-card-task-hot","true","0","12","463","463","0","test","5","17","1","30","250","510","false","rigged_win","","","",""
"454","","pre_stim","single-stim-button","102","125275","0.0-5.17-0.17","columbia-card-task-hot","true","0","11","454","454","0","test","5","18","1","30","250","540","false","rigged_win","","","",""
"479","","pre_stim","single-stim-button","103","125755","0.0-5.18-0.18","columbia-card-task-hot","true","0","10","479","479","0","test","5","19","1","30","250","570","false","rigged_win","","","",""
"559","","pre_stim","single-stim-button","104","126315","0.0-5.19-0.19","columbia-card-task-hot","true","0","9","559","559","0","test","5","20","1","30","250","600","false","rigged_win","","","",""
"1103","","pre_stim","single-stim-button","105","127419","0.0-5.20-0.20","columbia-card-task-hot","true","0","17","1103","1103","0","test","5","21","1","30","250","630","false","rigged_win","","","",""
"719","","pre_stim","single-stim-button","106","128139","0.0-5.21-0.21","columbia-card-task-hot","true","0","25","719","719","0","test","5","22","1","30","250","660","false","rigged_win","","","",""
"879","","pre_stim","single-stim-button","107","129019","0.0-5.22-0.22","columbia-card-task-hot","true","0","18","879","879","0","test","5","23","1","30","250","690","false","rigged_win","","","",""
"607","","pre_stim","single-stim-button","108","129627","0.0-5.23-0.23","columbia-card-task-hot","true","0","26","607","607","0","test","5","24","1","30","250","720","false","rigged_win","","","",""
"1159","","pre_stim","single-stim-button","109","130787","0.0-5.24-0.24","columbia-card-task-hot","true","0","19","1159","1159","0","test","5","25","1","30","250","750","false","rigged_win","","","",""
"1663","","pre_stim","single-stim-button","110","132451","0.0-5.25-0.25","columbia-card-task-hot","true","0","27","1663","1663","0","test","5","26","1","30","250","780","false","rigged_win","","","",""
"1575","","pre_stim","single-stim-button","111","134027","0.0-5.26-0.26","columbia-card-task-hot","true","0","21","1575","1575","0","test","5","27","1","30","250","810","false","rigged_win","","","",""
"1623","","pre_stim","single-stim-button","112","135651","0.0-5.27-0.27","columbia-card-task-hot","true","0","22","1623","1623","0","test","5","28","1","30","250","840","false","rigged_win","","","",""
"1087","","pre_stim","single-stim-button","113","136739","0.0-5.28-0.28","columbia-card-task-hot","true","0","20","1087","1087","0","test","5","29","1","30","250","870","false","rigged_win","","","",""
"2175","","pre_stim","single-stim-button","114","138915","0.0-5.29-0.29","columbia-card-task-hot","true","0","turnButton","2175","2175","0","test","5","29","1","30","250","870","false","rigged_win","","","",""
"3446","","pre_stim","single-stim-button","115","142363","0.0-5.30-0.30","columbia-card-task-hot","true","0","collectButton","3446","3446","0","test","5","30","1","30","250","870","false","rigged_win","","","",""
"6023","","pre_stim","single-stim-button","116","148388","0.0-6.0-0.0","columbia-card-task-hot","true","0","6","6023","6023","0","test","6","1","3","30","750","30","false","rigged_loss","","","",""
"462","","pre_stim","single-stim-button","117","148852","0.0-6.1-0.1","columbia-card-task-hot","true","0","5","462","462","0","test","6","2","3","30","750","60","false","rigged_loss","","","",""
"527","","pre_stim","single-stim-button","118","149379","0.0-6.2-0.2","columbia-card-task-hot","true","0","4","527","527","0","test","6","3","3","30","750","90","false","rigged_loss","","","",""
"447","","pre_stim","single-stim-button","119","149827","0.0-6.3-0.3","columbia-card-task-hot","true","0","12","447","447","0","test","6","4","3","30","750","120","false","rigged_loss","","","",""
"551","","pre_stim","single-stim-button","120","150379","0.0-6.4-0.4","columbia-card-task-hot","true","0","13","551","551","0","test","6","5","3","30","750","150","false","rigged_loss","","","",""
"583","","pre_stim","single-stim-button","121","150963","0.0-6.5-0.5","columbia-card-task-hot","true","0","21","583","583","0","test","6","6","3","30","750","-600","true","rigged_loss","","","",""
"3615","","pre_stim","single-stim-button","122","154579","0.0-6.6-0.6","columbia-card-task-hot","true","0","collectButton","3615","3615","0","test","6","7","3","30","750","-600","true","rigged_loss","","","",""
"5911","","pre_stim","single-stim-button","123","160492","0.0-7.0-0.0","columbia-card-task-hot","true","0","15","5911","5911","0","test","7","1","3","10","250","10","false","rigged_loss","","","",""
"575","","pre_stim","single-stim-button","124","161067","0.0-7.1-0.1","columbia-card-task-hot","true","0","14","575","575","0","test","7","2","3","10","250","20","false","rigged_loss","","","",""
"575","","pre_stim","single-stim-button","125","161644","0.0-7.2-0.2","columbia-card-task-hot","true","0","13","575","575","0","test","7","3","3","10","250","-230","true","rigged_loss","","","",""
"3813","","pre_stim","single-stim-button","126","165459","0.0-7.3-0.3","columbia-card-task-hot","true","0","collectButton","3813","3813","0","test","7","4","3","10","250","-230","true","rigged_loss","","","",""
"6175","","pre_stim","single-stim-button","127","171635","0.0-8.0-0.0","columbia-card-task-hot","true","0","13","6175","6175","0","test","8","1","3","10","750","10","false","rigged_win","","","",""
"734","","pre_stim","single-stim-button","128","172371","0.0-8.1-0.1","columbia-card-task-hot","true","0","12","734","734","0","test","8","2","3","10","750","20","false","rigged_win","","","",""
"1199","","pre_stim","single-stim-button","129","173571","0.0-8.2-0.2","columbia-card-task-hot","true","0","20","1199","1199","0","test","8","3","3","10","750","30","false","rigged_win","","","",""
"2126","","pre_stim","single-stim-button","130","175699","0.0-8.3-0.3","columbia-card-task-hot","true","0","21","2126","2126","0","test","8","4","3","10","750","40","false","rigged_win","","","",""
"1598","","pre_stim","single-stim-button","131","177299","0.0-8.4-0.4","columbia-card-task-hot","true","0","8","1598","1598","0","test","8","5","3","10","750","50","false","rigged_win","","","",""
"1150","","pre_stim","single-stim-button","132","178451","0.0-8.5-0.5","columbia-card-task-hot","true","0","1","1150","1150","0","test","8","6","3","10","750","60","false","rigged_win","","","",""
"1118","","pre_stim","single-stim-button","133","179571","0.0-8.6-0.6","columbia-card-task-hot","true","0","25","1118","1118","0","test","8","7","3","10","750","70","false","rigged_win","","","",""
"1463","","pre_stim","single-stim-button","134","181035","0.0-8.7-0.7","columbia-card-task-hot","true","0","32","1463","1463","0","test","8","8","3","10","750","80","false","rigged_win","","","",""
"998","","pre_stim","single-stim-button","135","182035","0.0-8.8-0.8","columbia-card-task-hot","true","0","15","998","998","0","test","8","9","3","10","750","90","false","rigged_win","","","",""
"846","","pre_stim","single-stim-button","136","182883","0.0-8.9-0.9","columbia-card-task-hot","true","0","23","846","846","0","test","8","10","3","10","750","100","false","rigged_win","","","",""
"806","","pre_stim","single-stim-button","137","183691","0.0-8.10-0.10","columbia-card-task-hot","true","0","16","806","806","0","test","8","11","3","10","750","110","false","rigged_win","","","",""
"622","","pre_stim","single-stim-button","138","184315","0.0-8.11-0.11","columbia-card-task-hot","true","0","24","622","622","0","test","8","12","3","10","750","120","false","rigged_win","","","",""
"1782","","pre_stim","single-stim-button","139","186099","0.0-8.12-0.12","columbia-card-task-hot","true","0","turnButton","1782","1782","0","test","8","12","3","10","750","120","false","rigged_win","","","",""
"4814","","pre_stim","single-stim-button","140","190915","0.0-8.13-0.13","columbia-card-task-hot","true","0","collectButton","4814","4814","0","test","8","13","3","10","750","120","false","rigged_win","","","",""
"6464","","pre_stim","single-stim-button","141","197379","0.0-9.0-0.0","columbia-card-task-hot","true","0","12","6464","6464","0","test","9","1","3","10","750","10","false","rigged_win","","","",""
"710","","pre_stim","single-stim-button","142","198091","0.0-9.1-0.1","columbia-card-task-hot","true","0","11","710","710","0","test","9","2","3","10","750","20","false","rigged_win","","","",""
"582","","pre_stim","single-stim-button","143","198675","0.0-9.2-0.2","columbia-card-task-hot","true","0","10","582","582","0","test","9","3","3","10","750","30","false","rigged_win","","","",""
"631","","pre_stim","single-stim-button","144","199307","0.0-9.3-0.3","columbia-card-task-hot","true","0","9","631","631","0","test","9","4","3","10","750","40","false","rigged_win","","","",""
"990","","pre_stim","single-stim-button","145","200299","0.0-9.4-0.4","columbia-card-task-hot","true","0","13","990","990","0","test","9","5","3","10","750","50","false","rigged_win","","","",""
"551","","pre_stim","single-stim-button","146","200851","0.0-9.5-0.5","columbia-card-task-hot","true","0","14","551","551","0","test","9","6","3","10","750","60","false","rigged_win","","","",""
"655","","pre_stim","single-stim-button","147","201507","0.0-9.6-0.6","columbia-card-task-hot","true","0","15","655","655","0","test","9","7","3","10","750","70","false","rigged_win","","","",""
"767","","pre_stim","single-stim-button","148","202275","0.0-9.7-0.7","columbia-card-task-hot","true","0","16","767","767","0","test","9","8","3","10","750","80","false","rigged_win","","","",""
"1246","","pre_stim","single-stim-button","149","203523","0.0-9.8-0.8","columbia-card-task-hot","true","0","8","1246","1246","0","test","9","9","3","10","750","90","false","rigged_win","","","",""
"1054","","pre_stim","single-stim-button","150","204579","0.0-9.9-0.9","columbia-card-task-hot","true","0","32","1054","1054","0","test","9","10","3","10","750","100","false","rigged_win","","","",""
"1134","","pre_stim","single-stim-button","151","205715","0.0-9.10-0.10","columbia-card-task-hot","true","0","25","1134","1134","0","test","9","11","3","10","750","110","false","rigged_win","","","",""
"662","","pre_stim","single-stim-button","152","206379","0.0-9.11-0.11","columbia-card-task-hot","true","0","1","662","662","0","test","9","12","3","10","750","120","false","rigged_win","","","",""
"790","","pre_stim","single-stim-button","153","207171","0.0-9.12-0.12","columbia-card-task-hot","true","0","2","790","790","0","test","9","13","3","10","750","130","false","rigged_win","","","",""
"590","","pre_stim","single-stim-button","154","207763","0.0-9.13-0.13","columbia-card-task-hot","true","0","3","590","590","0","test","9","14","3","10","750","140","false","rigged_win","","","",""
"2062","","pre_stim","single-stim-button","155","209827","0.0-9.14-0.14","columbia-card-task-hot","true","0","5","2062","2062","0","test","9","15","3","10","750","150","false","rigged_win","","","",""
"910","","pre_stim","single-stim-button","156","210739","0.0-9.15-0.15","columbia-card-task-hot","true","0","7","910","910","0","test","9","16","3","10","750","160","false","rigged_win","","","",""
"1878","","pre_stim","single-stim-button","157","212619","0.0-9.16-0.16","columbia-card-task-hot","true","0","4","1878","1878","0","test","9","17","3","10","750","170","false","rigged_win","","","",""
"1511","","pre_stim","single-stim-button","158","214131","0.0-9.17-0.17","columbia-card-task-hot","true","0","turnButton","1511","1511","0","test","9","17","3","10","750","170","false","rigged_win","","","",""
"4375","","pre_stim","single-stim-button","159","218507","0.0-9.18-0.18","columbia-card-task-hot","true","0","collectButton","4375","4375","0","test","9","18","3","10","750","170","false","rigged_win","","","",""
"6502","","pre_stim","single-stim-button","160","225011","0.0-10.0-0.0","columbia-card-task-hot","true","0","8","6502","6502","0","test","10","1","3","30","250","30","false","rigged_loss","","","",""
"543","","pre_stim","single-stim-button","161","225555","0.0-10.1-0.1","columbia-card-task-hot","true","0","7","543","543","0","test","10","2","3","30","250","60","false","rigged_loss","","","",""
"558","","pre_stim","single-stim-button","162","226115","0.0-10.2-0.2","columbia-card-task-hot","true","0","16","558","558","0","test","10","3","3","30","250","90","false","rigged_loss","","","",""
"471","","pre_stim","single-stim-button","163","226587","0.0-10.3-0.3","columbia-card-task-hot","true","0","15","471","471","0","test","10","4","3","30","250","120","false","rigged_loss","","","",""
"486","","pre_stim","single-stim-button","164","227075","0.0-10.4-0.4","columbia-card-task-hot","true","0","14","486","486","0","test","10","5","3","30","250","150","false","rigged_loss","","","",""
"815","","pre_stim","single-stim-button","165","227891","0.0-10.5-0.5","columbia-card-task-hot","true","0","13","815","815","0","test","10","6","3","30","250","180","false","rigged_loss","","","",""
"1127","","pre_stim","single-stim-button","166","229019","0.0-10.6-0.6","columbia-card-task-hot","true","0","6","1127","1127","0","test","10","7","3","30","250","210","false","rigged_loss","","","",""
"655","","pre_stim","single-stim-button","167","229675","0.0-10.7-0.7","columbia-card-task-hot","true","0","5","655","655","0","test","10","8","3","30","250","240","false","rigged_loss","","","",""
"1262","","pre_stim","single-stim-button","168","230939","0.0-10.8-0.8","columbia-card-task-hot","true","0","4","1262","1262","0","test","10","9","3","30","250","270","false","rigged_loss","","","",""
"671","","pre_stim","single-stim-button","169","231611","0.0-10.9-0.9","columbia-card-task-hot","true","0","12","671","671","0","test","10","10","3","30","250","20","true","rigged_loss","","","",""
"4015","","pre_stim","single-stim-button","170","235627","0.0-10.10-0.10","columbia-card-task-hot","true","0","collectButton","4015","4015","0","test","10","11","3","30","250","20","true","rigged_loss","","","",""
"6614","","pre_stim","single-stim-button","171","242243","0.0-11.0-0.0","columbia-card-task-hot","true","0","11","6614","6614","0","test","11","1","3","10","250","10","false","rigged_win","","","",""
"727","","pre_stim","single-stim-button","172","242972","0.0-11.1-0.1","columbia-card-task-hot","true","0","10","727","727","0","test","11","2","3","10","250","20","false","rigged_win","","","",""
"518","","pre_stim","single-stim-button","173","243491","0.0-11.2-0.2","columbia-card-task-hot","true","0","9","518","518","0","test","11","3","3","10","250","30","false","rigged_win","","","",""
"567","","pre_stim","single-stim-button","174","244059","0.0-11.3-0.3","columbia-card-task-hot","true","0","1","567","567","0","test","11","4","3","10","250","40","false","rigged_win","","","",""
"511","","pre_stim","single-stim-button","175","244571","0.0-11.4-0.4","columbia-card-task-hot","true","0","2","511","511","0","test","11","5","3","10","250","50","false","rigged_win","","","",""
"614","","pre_stim","single-stim-button","176","245187","0.0-11.5-0.5","columbia-card-task-hot","true","0","12","614","614","0","test","11","6","3","10","250","60","false","rigged_win","","","",""
"527","","pre_stim","single-stim-button","177","245715","0.0-11.6-0.6","columbia-card-task-hot","true","0","13","527","527","0","test","11","7","3","10","250","70","false","rigged_win","","","",""
"559","","pre_stim","single-stim-button","178","246275","0.0-11.7-0.7","columbia-card-task-hot","true","0","14","559","559","0","test","11","8","3","10","250","80","false","rigged_win","","","",""
"518","","pre_stim","single-stim-button","179","246795","0.0-11.8-0.8","columbia-card-task-hot","true","0","15","518","518","0","test","11","9","3","10","250","90","false","rigged_win","","","",""
"615","","pre_stim","single-stim-button","180","247412","0.0-11.9-0.9","columbia-card-task-hot","true","0","16","615","615","0","test","11","10","3","10","250","100","false","rigged_win","","","",""
"1871","","pre_stim","single-stim-button","181","249283","0.0-11.10-0.10","columbia-card-task-hot","true","0","19","1871","1871","0","test","11","11","3","10","250","110","false","rigged_win","","","",""
"493","","pre_stim","single-stim-button","182","249779","0.0-11.11-0.11","columbia-card-task-hot","true","0","27","493","493","0","test","11","12","3","10","250","120","false","rigged_win","","","",""
"463","","pre_stim","single-stim-button","183","250243","0.0-11.12-0.12","columbia-card-task-hot","true","0","28","463","463","0","test","11","13","3","10","250","130","false","rigged_win","","","",""
"495","","pre_stim","single-stim-button","184","250739","0.0-11.13-0.13","columbia-card-task-hot","true","0","20","495","495","0","test","11","14","3","10","250","140","false","rigged_win","","","",""
"2870","","pre_stim","single-stim-button","185","253611","0.0-11.14-0.14","columbia-card-task-hot","true","0","5","2870","2870","0","test","11","15","3","10","250","150","false","rigged_win","","","",""
"783","","pre_stim","single-stim-button","186","254395","0.0-11.15-0.15","columbia-card-task-hot","true","0","4","783","783","0","test","11","16","3","10","250","160","false","rigged_win","","","",""
"623","","pre_stim","single-stim-button","187","255019","0.0-11.16-0.16","columbia-card-task-hot","true","0","6","623","623","0","test","11","17","3","10","250","170","false","rigged_win","","","",""
"934","","pre_stim","single-stim-button","188","255955","0.0-11.17-0.17","columbia-card-task-hot","true","0","turnButton","934","934","0","test","11","17","3","10","250","170","false","rigged_win","","","",""
"4567","","pre_stim","single-stim-button","189","260523","0.0-11.18-0.18","columbia-card-task-hot","true","0","collectButton","4567","4567","0","test","11","18","3","10","250","170","false","rigged_win","","","",""
"6383","","pre_stim","single-stim-button","190","266908","0.0-12.0-0.0","columbia-card-task-hot","true","0","24","6383","6383","0","test","12","1","3","10","250","10","false","rigged_loss","","","",""
"454","","pre_stim","single-stim-button","191","267363","0.0-12.1-0.1","columbia-card-task-hot","true","0","23","454","454","0","test","12","2","3","10","250","20","false","rigged_loss","","","",""
"614","","pre_stim","single-stim-button","192","267979","0.0-12.2-0.2","columbia-card-task-hot","true","0","32","614","614","0","test","12","3","3","10","250","30","false","rigged_loss","","","",""
"543","","pre_stim","single-stim-button","193","268523","0.0-12.3-0.3","columbia-card-task-hot","true","0","16","543","543","0","test","12","4","3","10","250","40","false","rigged_loss","","","",""
"527","","pre_stim","single-stim-button","194","269051","0.0-12.4-0.4","columbia-card-task-hot","true","0","8","527","527","0","test","12","5","3","10","250","50","false","rigged_loss","","","",""
"1375","","pre_stim","single-stim-button","195","270427","0.0-12.5-0.5","columbia-card-task-hot","true","0","7","1375","1375","0","test","12","6","3","10","250","60","false","rigged_loss","","","",""
"574","","pre_stim","single-stim-button","196","271002","0.0-12.6-0.6","columbia-card-task-hot","true","0","6","574","574","0","test","12","7","3","10","250","70","false","rigged_loss","","","",""
"848","","pre_stim","single-stim-button","197","271851","0.0-12.7-0.7","columbia-card-task-hot","true","0","5","848","848","0","test","12","8","3","10","250","80","false","rigged_loss","","","",""
"2086","","pre_stim","single-stim-button","198","273939","0.0-12.8-0.8","columbia-card-task-hot","true","0","10","2086","2086","0","test","12","9","3","10","250","90","false","rigged_loss","","","",""
"527","","pre_stim","single-stim-button","199","274467","0.0-12.9-0.9","columbia-card-task-hot","true","0","9","527","527","0","test","12","10","3","10","250","100","false","rigged_loss","","","",""
"1182","","pre_stim","single-stim-button","200","275651","0.0-12.10-0.10","columbia-card-task-hot","true","0","14","1182","1182","0","test","12","11","3","10","250","-150","true","rigged_loss","","","",""
"1839","","pre_stim","single-stim-button","201","277491","0.0-12.11-0.11","columbia-card-task-hot","true","0","collectButton","1839","1839","0","test","12","12","3","10","250","-150","true","rigged_loss","","","",""
"6799","","pre_stim","single-stim-button","202","284292","0.0-13.0-0.0","columbia-card-task-hot","true","0","5","6799","6799","0","test","13","1","1","30","750","30","false","rigged_win","","","",""
"557","","pre_stim","single-stim-button","203","284851","0.0-13.1-0.1","columbia-card-task-hot","true","0","6","557","557","0","test","13","2","1","30","750","60","false","rigged_win","","","",""
"431","","pre_stim","single-stim-button","204","285283","0.0-13.2-0.2","columbia-card-task-hot","true","0","7","431","431","0","test","13","3","1","30","750","90","false","rigged_win","","","",""
"471","","pre_stim","single-stim-button","205","285755","0.0-13.3-0.3","columbia-card-task-hot","true","0","8","471","471","0","test","13","4","1","30","750","120","false","rigged_win","","","",""
"1078","","pre_stim","single-stim-button","206","286835","0.0-13.4-0.4","columbia-card-task-hot","true","0","4","1078","1078","0","test","13","5","1","30","750","150","false","rigged_win","","","",""
"479","","pre_stim","single-stim-button","207","287315","0.0-13.5-0.5","columbia-card-task-hot","true","0","3","479","479","0","test","13","6","1","30","750","180","false","rigged_win","","","",""
"655","","pre_stim","single-stim-button","208","287971","0.0-13.6-0.6","columbia-card-task-hot","true","0","2","655","655","0","test","13","7","1","30","750","210","false","rigged_win","","","",""
"645","","pre_stim","single-stim-button","209","288619","0.0-13.7-0.7","columbia-card-task-hot","true","0","1","645","645","0","test","13","8","1","30","750","240","false","rigged_win","","","",""
"1287","","pre_stim","single-stim-button","210","289907","0.0-13.8-0.8","columbia-card-task-hot","true","0","14","1287","1287","0","test","13","9","1","30","750","270","false","rigged_win","","","",""
"502","","pre_stim","single-stim-button","211","290411","0.0-13.9-0.9","columbia-card-task-hot","true","0","22","502","502","0","test","13","10","1","30","750","300","false","rigged_win","","","",""
"519","","pre_stim","single-stim-button","212","290931","0.0-13.10-0.10","columbia-card-task-hot","true","0","30","519","519","0","test","13","11","1","30","750","330","false","rigged_win","","","",""
"1526","","pre_stim","single-stim-button","213","292459","0.0-13.11-0.11","columbia-card-task-hot","true","0","15","1526","1526","0","test","13","12","1","30","750","360","false","rigged_win","","","",""
"463","","pre_stim","single-stim-button","214","292923","0.0-13.12-0.12","columbia-card-task-hot","true","0","16","463","463","0","test","13","13","1","30","750","390","false","rigged_win","","","",""
"966","","pre_stim","single-stim-button","215","293891","0.0-13.13-0.13","columbia-card-task-hot","true","0","24","966","966","0","test","13","14","1","30","750","420","false","rigged_win","","","",""
"591","","pre_stim","single-stim-button","216","294483","0.0-13.14-0.14","columbia-card-task-hot","true","0","23","591","591","0","test","13","15","1","30","750","450","false","rigged_win","","","",""
"943","","pre_stim","single-stim-button","217","295427","0.0-13.15-0.15","columbia-card-task-hot","true","0","13","943","943","0","test","13","16","1","30","750","480","false","rigged_win","","","",""
"846","","pre_stim","single-stim-button","218","296275","0.0-13.16-0.16","columbia-card-task-hot","true","0","11","846","846","0","test","13","17","1","30","750","510","false","rigged_win","","","",""
"829","","pre_stim","single-stim-button","219","297107","0.0-13.17-0.17","columbia-card-task-hot","true","0","12","829","829","0","test","13","18","1","30","750","540","false","rigged_win","","","",""
"1807","","pre_stim","single-stim-button","220","298915","0.0-13.18-0.18","columbia-card-task-hot","true","0","21","1807","1807","0","test","13","19","1","30","750","570","false","rigged_win","","","",""
"2239","","pre_stim","single-stim-button","221","301155","0.0-13.19-0.19","columbia-card-task-hot","true","0","turnButton","2239","2239","0","test","13","19","1","30","750","570","false","rigged_win","","","",""
"3414","","pre_stim","single-stim-button","222","304571","0.0-13.20-0.20","columbia-card-task-hot","true","0","collectButton","3414","3414","0","test","13","20","1","30","750","570","false","rigged_win","","","",""
"8119","","pre_stim","single-stim-button","223","312691","0.0-14.0-0.0","columbia-card-task-hot","true","0","22","8119","8119","0","test","14","1","3","30","750","30","false","rigged_win","","","",""
"686","","pre_stim","single-stim-button","224","313379","0.0-14.1-0.1","columbia-card-task-hot","true","0","21","686","686","0","test","14","2","3","30","750","60","false","rigged_win","","","",""
"679","","pre_stim","single-stim-button","225","314059","0.0-14.2-0.2","columbia-card-task-hot","true","0","20","679","679","0","test","14","3","3","30","750","90","false","rigged_win","","","",""
"903","","pre_stim","single-stim-button","226","314964","0.0-14.3-0.3","columbia-card-task-hot","true","0","12","903","903","0","test","14","4","3","30","750","120","false","rigged_win","","","",""
"630","","pre_stim","single-stim-button","227","315595","0.0-14.4-0.4","columbia-card-task-hot","true","0","13","630","630","0","test","14","5","3","30","750","150","false","rigged_win","","","",""
"815","","pre_stim","single-stim-button","228","316411","0.0-14.5-0.5","columbia-card-task-hot","true","0","14","815","815","0","test","14","6","3","30","750","180","false","rigged_win","","","",""
"1574","","pre_stim","single-stim-button","229","317987","0.0-14.6-0.6","columbia-card-task-hot","true","0","11","1574","1574","0","test","14","7","3","30","750","210","false","rigged_win","","","",""
"934","","pre_stim","single-stim-button","230","318923","0.0-14.7-0.7","columbia-card-task-hot","true","0","15","934","934","0","test","14","8","3","30","750","240","false","rigged_win","","","",""
"1767","","pre_stim","single-stim-button","231","320691","0.0-14.8-0.8","columbia-card-task-hot","true","0","turnButton","1767","1767","0","test","14","8","3","30","750","240","false","rigged_win","","","",""
"4511","","pre_stim","single-stim-button","232","325203","0.0-14.9-0.9","columbia-card-task-hot","true","0","collectButton","4511","4511","0","test","14","9","3","30","750","240","false","rigged_win","","","",""
"6191","","pre_stim","single-stim-button","233","331395","0.0-15.0-0.0","columbia-card-task-hot","true","0","8","6191","6191","0","test","15","1","1","30","250","30","false","rigged_win","","","",""
"839","","pre_stim","single-stim-button","234","332235","0.0-15.1-0.1","columbia-card-task-hot","true","0","15","839","839","0","test","15","2","1","30","250","60","false","rigged_win","","","",""
"557","","pre_stim","single-stim-button","235","332795","0.0-15.2-0.2","columbia-card-task-hot","true","0","16","557","557","0","test","15","3","1","30","250","90","false","rigged_win","","","",""
"422","","pre_stim","single-stim-button","236","333219","0.0-15.3-0.3","columbia-card-task-hot","true","0","24","422","422","0","test","15","4","1","30","250","120","false","rigged_win","","","",""
"430","","pre_stim","single-stim-button","237","333651","0.0-15.4-0.4","columbia-card-task-hot","true","0","23","430","430","0","test","15","5","1","30","250","150","false","rigged_win","","","",""
"415","","pre_stim","single-stim-button","238","334067","0.0-15.5-0.5","columbia-card-task-hot","true","0","31","415","415","0","test","15","6","1","30","250","180","false","rigged_win","","","",""
"430","","pre_stim","single-stim-button","239","334499","0.0-15.6-0.6","columbia-card-task-hot","true","0","32","430","430","0","test","15","7","1","30","250","210","false","rigged_win","","","",""
"686","","pre_stim","single-stim-button","240","335187","0.0-15.7-0.7","columbia-card-task-hot","true","0","22","686","686","0","test","15","8","1","30","250","240","false","rigged_win","","","",""
"998","","pre_stim","single-stim-button","241","336187","0.0-15.8-0.8","columbia-card-task-hot","true","0","6","998","998","0","test","15","9","1","30","250","270","false","rigged_win","","","",""
"454","","pre_stim","single-stim-button","242","336643","0.0-15.9-0.9","columbia-card-task-hot","true","0","7","454","454","0","test","15","10","1","30","250","300","false","rigged_win","","","",""
"478","","pre_stim","single-stim-button","243","337123","0.0-15.10-0.10","columbia-card-task-hot","true","0","14","478","478","0","test","15","11","1","30","250","330","false","rigged_win","","","",""
"646","","pre_stim","single-stim-button","244","337772","0.0-15.11-0.11","columbia-card-task-hot","true","0","5","646","646","0","test","15","12","1","30","250","360","false","rigged_win","","","",""
"438","","pre_stim","single-stim-button","245","338211","0.0-15.12-0.12","columbia-card-task-hot","true","0","4","438","438","0","test","15","13","1","30","250","390","false","rigged_win","","","",""
"518","","pre_stim","single-stim-button","246","338731","0.0-15.13-0.13","columbia-card-task-hot","true","0","3","518","518","0","test","15","14","1","30","250","420","false","rigged_win","","","",""
"558","","pre_stim","single-stim-button","247","339291","0.0-15.14-0.14","columbia-card-task-hot","true","0","2","558","558","0","test","15","15","1","30","250","450","false","rigged_win","","","",""
"622","","pre_stim","single-stim-button","248","339915","0.0-15.15-0.15","columbia-card-task-hot","true","0","1","622","622","0","test","15","16","1","30","250","480","false","rigged_win","","","",""
"510","","pre_stim","single-stim-button","249","340427","0.0-15.16-0.16","columbia-card-task-hot","true","0","9","510","510","0","test","15","17","1","30","250","510","false","rigged_win","","","",""
"415","","pre_stim","single-stim-button","250","340843","0.0-15.17-0.17","columbia-card-task-hot","true","0","10","415","415","0","test","15","18","1","30","250","540","false","rigged_win","","","",""
"398","","pre_stim","single-stim-button","251","341242","0.0-15.18-0.18","columbia-card-task-hot","true","0","11","398","398","0","test","15","19","1","30","250","570","false","rigged_win","","","",""
"392","","pre_stim","single-stim-button","252","341635","0.0-15.19-0.19","columbia-card-task-hot","true","0","12","392","392","0","test","15","20","1","30","250","600","false","rigged_win","","","",""
"414","","pre_stim","single-stim-button","253","342051","0.0-15.20-0.20","columbia-card-task-hot","true","0","13","414","414","0","test","15","21","1","30","250","630","false","rigged_win","","","",""
"559","","pre_stim","single-stim-button","254","342611","0.0-15.21-0.21","columbia-card-task-hot","true","0","20","559","559","0","test","15","22","1","30","250","660","false","rigged_win","","","",""
"518","","pre_stim","single-stim-button","255","343131","0.0-15.22-0.22","columbia-card-task-hot","true","0","19","518","518","0","test","15","23","1","30","250","690","false","rigged_win","","","",""
"615","","pre_stim","single-stim-button","256","343747","0.0-15.23-0.23","columbia-card-task-hot","true","0","21","615","615","0","test","15","24","1","30","250","720","false","rigged_win","","","",""
"1037","","pre_stim","single-stim-button","257","344787","0.0-15.24-0.24","columbia-card-task-hot","true","0","18","1037","1037","0","test","15","25","1","30","250","750","false","rigged_win","","","",""
"662","","pre_stim","single-stim-button","258","345450","0.0-15.25-0.25","columbia-card-task-hot","true","0","17","662","662","0","test","15","26","1","30","250","780","false","rigged_win","","","",""
"1062","","pre_stim","single-stim-button","259","346514","0.0-15.26-0.26","columbia-card-task-hot","true","0","25","1062","1062","0","test","15","27","1","30","250","810","false","rigged_win","","","",""
"1199","","pre_stim","single-stim-button","260","347714","0.0-15.27-0.27","columbia-card-task-hot","true","0","30","1199","1199","0","test","15","28","1","30","250","840","false","rigged_win","","","",""
"1295","","pre_stim","single-stim-button","261","349010","0.0-15.28-0.28","columbia-card-task-hot","true","0","29","1295","1295","0","test","15","29","1","30","250","870","false","rigged_win","","","",""
"2231","","pre_stim","single-stim-button","262","351242","0.0-15.29-0.29","columbia-card-task-hot","true","0","turnButton","2231","2231","0","test","15","29","1","30","250","870","false","rigged_win","","","",""
"3551","","pre_stim","single-stim-button","263","354794","0.0-15.30-0.30","columbia-card-task-hot","true","0","collectButton","3551","3551","0","test","15","30","1","30","250","870","false","rigged_win","","","",""
"5502","","pre_stim","single-stim-button","264","360298","0.0-16.0-0.0","columbia-card-task-hot","true","0","7","5502","5502","0","test","16","1","3","30","750","30","false","rigged_win","","","",""
"462","","pre_stim","single-stim-button","265","360762","0.0-16.1-0.1","columbia-card-task-hot","true","0","6","462","462","0","test","16","2","3","30","750","60","false","rigged_win","","","",""
"526","","pre_stim","single-stim-button","266","361290","0.0-16.2-0.2","columbia-card-task-hot","true","0","8","526","526","0","test","16","3","3","30","750","90","false","rigged_win","","","",""
"566","","pre_stim","single-stim-button","267","361859","0.0-16.3-0.3","columbia-card-task-hot","true","0","16","566","566","0","test","16","4","3","30","750","120","false","rigged_win","","","",""
"542","","pre_stim","single-stim-button","268","362402","0.0-16.4-0.4","columbia-card-task-hot","true","0","24","542","542","0","test","16","5","3","30","750","150","false","rigged_win","","","",""
"758","","pre_stim","single-stim-button","269","363162","0.0-16.5-0.5","columbia-card-task-hot","true","0","32","758","758","0","test","16","6","3","30","750","180","false","rigged_win","","","",""
"1022","","pre_stim","single-stim-button","270","364186","0.0-16.6-0.6","columbia-card-task-hot","true","0","15","1022","1022","0","test","16","7","3","30","750","210","false","rigged_win","","","",""
"718","","pre_stim","single-stim-button","271","364906","0.0-16.7-0.7","columbia-card-task-hot","true","0","5","718","718","0","test","16","8","3","30","750","240","false","rigged_win","","","",""
"582","","pre_stim","single-stim-button","272","365491","0.0-16.8-0.8","columbia-card-task-hot","true","0","4","582","582","0","test","16","9","3","30","750","270","false","rigged_win","","","",""
"846","","pre_stim","single-stim-button","273","366338","0.0-16.9-0.9","columbia-card-task-hot","true","0","13","846","846","0","test","16","10","3","30","750","300","false","rigged_win","","","",""
"998","","pre_stim","single-stim-button","274","367338","0.0-16.10-0.10","columbia-card-task-hot","true","0","3","998","998","0","test","16","11","3","30","750","330","false","rigged_win","","","",""
"1534","","pre_stim","single-stim-button","275","368874","0.0-16.11-0.11","columbia-card-task-hot","true","0","turnButton","1534","1534","0","test","16","11","3","30","750","330","false","rigged_win","","","",""
"4582","","pre_stim","single-stim-button","276","373458","0.0-16.12-0.12","columbia-card-task-hot","true","0","collectButton","4582","4582","0","test","16","12","3","30","750","330","false","rigged_win","","","",""
"6214","","pre_stim","single-stim-button","277","379674","0.0-17.0-0.0","columbia-card-task-hot","true","0","8","6214","6214","0","test","17","1","1","10","250","10","false","rigged_win","","","",""
"366","","pre_stim","single-stim-button","278","380042","0.0-17.1-0.1","columbia-card-task-hot","true","0","7","366","366","0","test","17","2","1","10","250","20","false","rigged_win","","","",""
"342","","pre_stim","single-stim-button","279","380387","0.0-17.2-0.2","columbia-card-task-hot","true","0","6","342","342","0","test","17","3","1","10","250","30","false","rigged_win","","","",""
"382","","pre_stim","single-stim-button","280","380770","0.0-17.3-0.3","columbia-card-task-hot","true","0","5","382","382","0","test","17","4","1","10","250","40","false","rigged_win","","","",""
"942","","pre_stim","single-stim-button","281","381714","0.0-17.4-0.4","columbia-card-task-hot","true","0","13","942","942","0","test","17","5","1","10","250","50","false","rigged_win","","","",""
"663","","pre_stim","single-stim-button","282","382378","0.0-17.5-0.5","columbia-card-task-hot","true","0","14","663","663","0","test","17","6","1","10","250","60","false","rigged_win","","","",""
"918","","pre_stim","single-stim-button","283","383298","0.0-17.6-0.6","columbia-card-task-hot","true","0","12","918","918","0","test","17","7","1","10","250","70","false","rigged_win","","","",""
"406","","pre_stim","single-stim-button","284","383706","0.0-17.7-0.7","columbia-card-task-hot","true","0","4","406","406","0","test","17","8","1","10","250","80","false","rigged_win","","","",""
"502","","pre_stim","single-stim-button","285","384210","0.0-17.8-0.8","columbia-card-task-hot","true","0","3","502","502","0","test","17","9","1","10","250","90","false","rigged_win","","","",""
"487","","pre_stim","single-stim-button","286","384698","0.0-17.9-0.9","columbia-card-task-hot","true","0","11","487","487","0","test","17","10","1","10","250","100","false","rigged_win","","","",""
"854","","pre_stim","single-stim-button","287","385554","0.0-17.10-0.10","columbia-card-task-hot","true","0","15","854","854","0","test","17","11","1","10","250","110","false","rigged_win","","","",""
"398","","pre_stim","single-stim-button","288","385954","0.0-17.11-0.11","columbia-card-task-hot","true","0","16","398","398","0","test","17","12","1","10","250","120","false","rigged_win","","","",""
"694","","pre_stim","single-stim-button","289","386650","0.0-17.12-0.12","columbia-card-task-hot","true","0","24","694","694","0","test","17","13","1","10","250","130","false","rigged_win","","","",""
"542","","pre_stim","single-stim-button","290","387194","0.0-17.13-0.13","columbia-card-task-hot","true","0","23","542","542","0","test","17","14","1","10","250","140","false","rigged_win","","","",""
"494","","pre_stim","single-stim-button","291","387691","0.0-17.14-0.14","columbia-card-task-hot","true","0","22","494","494","0","test","17","15","1","10","250","150","false","rigged_win","","","",""
"654","","pre_stim","single-stim-button","292","388346","0.0-17.15-0.15","columbia-card-task-hot","true","0","21","654","654","0","test","17","16","1","10","250","160","false","rigged_win","","","",""
"646","","pre_stim","single-stim-button","293","388994","0.0-17.16-0.16","columbia-card-task-hot","true","0","30","646","646","0","test","17","17","1","10","250","170","false","rigged_win","","","",""
"453","","pre_stim","single-stim-button","294","389450","0.0-17.17-0.17","columbia-card-task-hot","true","0","31","453","453","0","test","17","18","1","10","250","180","false","rigged_win","","","",""
"399","","pre_stim","single-stim-button","295","389850","0.0-17.18-0.18","columbia-card-task-hot","true","0","32","399","399","0","test","17","19","1","10","250","190","false","rigged_win","","","",""
"862","","pre_stim","single-stim-button","296","390715","0.0-17.19-0.19","columbia-card-task-hot","true","0","20","862","862","0","test","17","20","1","10","250","200","false","rigged_win","","","",""
"486","","pre_stim","single-stim-button","297","391202","0.0-17.20-0.20","columbia-card-task-hot","true","0","19","486","486","0","test","17","21","1","10","250","210","false","rigged_win","","","",""
"574","","pre_stim","single-stim-button","298","391778","0.0-17.21-0.21","columbia-card-task-hot","true","0","2","574","574","0","test","17","22","1","10","250","220","false","rigged_win","","","",""
"702","","pre_stim","single-stim-button","299","392482","0.0-17.22-0.22","columbia-card-task-hot","true","0","10","702","702","0","test","17","23","1","10","250","230","false","rigged_win","","","",""
"782","","pre_stim","single-stim-button","300","393266","0.0-17.23-0.23","columbia-card-task-hot","true","0","29","782","782","0","test","17","24","1","10","250","240","false","rigged_win","","","",""
"1199","","pre_stim","single-stim-button","301","394466","0.0-17.24-0.24","columbia-card-task-hot","true","0","28","1199","1199","0","test","17","25","1","10","250","250","false","rigged_win","","","",""
"1838","","pre_stim","single-stim-button","302","396306","0.0-17.25-0.25","columbia-card-task-hot","true","0","turnButton","1838","1838","0","test","17","25","1","10","250","250","false","rigged_win","","","",""
"4158","","pre_stim","single-stim-button","303","400466","0.0-17.26-0.26","columbia-card-task-hot","true","0","collectButton","4158","4158","0","test","17","26","1","10","250","250","false","rigged_win","","","",""
"5614","","pre_stim","single-stim-button","304","406082","0.0-18.0-0.0","columbia-card-task-hot","true","0","4","5614","5614","0","test","18","1","3","30","250","30","false","rigged_win","","","",""
"702","","pre_stim","single-stim-button","305","406785","0.0-18.1-0.1","columbia-card-task-hot","true","0","3","702","702","0","test","18","2","3","30","250","60","false","rigged_win","","","",""
"622","","pre_stim","single-stim-button","306","407410","0.0-18.2-0.2","columbia-card-task-hot","true","0","5","622","622","0","test","18","3","3","30","250","90","false","rigged_win","","","",""
"550","","pre_stim","single-stim-button","307","407961","0.0-18.3-0.3","columbia-card-task-hot","true","0","13","550","550","0","test","18","4","3","30","250","120","false","rigged_win","","","",""
"630","","pre_stim","single-stim-button","308","408593","0.0-18.4-0.4","columbia-card-task-hot","true","0","12","630","630","0","test","18","5","3","30","250","150","false","rigged_win","","","",""
"1070","","pre_stim","single-stim-button","309","409665","0.0-18.5-0.5","columbia-card-task-hot","true","0","6","1070","1070","0","test","18","6","3","30","250","180","false","rigged_win","","","",""
"846","","pre_stim","single-stim-button","310","410513","0.0-18.6-0.6","columbia-card-task-hot","true","0","8","846","846","0","test","18","7","3","30","250","210","false","rigged_win","","","",""
"550","","pre_stim","single-stim-button","311","411065","0.0-18.7-0.7","columbia-card-task-hot","true","0","16","550","550","0","test","18","8","3","30","250","240","false","rigged_win","","","",""
"990","","pre_stim","single-stim-button","312","412058","0.0-18.8-0.8","columbia-card-task-hot","true","0","24","990","990","0","test","18","9","3","30","250","270","false","rigged_win","","","",""
"1718","","pre_stim","single-stim-button","313","413777","0.0-18.9-0.9","columbia-card-task-hot","true","0","15","1718","1718","0","test","18","10","3","30","250","300","false","rigged_win","","","",""
"670","","pre_stim","single-stim-button","314","414449","0.0-18.10-0.10","columbia-card-task-hot","true","0","7","670","670","0","test","18","11","3","30","250","330","false","rigged_win","","","",""
"2022","","pre_stim","single-stim-button","315","416473","0.0-18.11-0.11","columbia-card-task-hot","true","0","14","2022","2022","0","test","18","12","3","30","250","360","false","rigged_win","","","",""
"1638","","pre_stim","single-stim-button","316","418113","0.0-18.12-0.12","columbia-card-task-hot","true","0","turnButton","1638","1638","0","test","18","12","3","30","250","360","false","rigged_win","","","",""
"3822","","pre_stim","single-stim-button","317","421937","0.0-18.13-0.13","columbia-card-task-hot","true","0","collectButton","3822","3822","0","test","18","13","3","30","250","360","false","rigged_win","","","",""
"6238","","pre_stim","single-stim-button","318","428178","0.0-19.0-0.0","columbia-card-task-hot","true","0","8","6238","6238","0","test","19","1","1","10","750","10","false","rigged_win","","","",""
"398","","pre_stim","single-stim-button","319","428578","0.0-19.1-0.1","columbia-card-task-hot","true","0","7","398","398","0","test","19","2","1","10","750","20","false","rigged_win","","","",""
"326","","pre_stim","single-stim-button","320","428906","0.0-19.2-0.2","columbia-card-task-hot","true","0","6","326","326","0","test","19","3","1","10","750","30","false","rigged_win","","","",""
"334","","pre_stim","single-stim-button","321","429241","0.0-19.3-0.3","columbia-card-task-hot","true","0","5","334","334","0","test","19","4","1","10","750","40","false","rigged_win","","","",""
"470","","pre_stim","single-stim-button","322","429713","0.0-19.4-0.4","columbia-card-task-hot","true","0","4","470","470","0","test","19","5","1","10","750","50","false","rigged_win","","","",""
"382","","pre_stim","single-stim-button","323","430097","0.0-19.5-0.5","columbia-card-task-hot","true","0","3","382","382","0","test","19","6","1","10","750","60","false","rigged_win","","","",""
"438","","pre_stim","single-stim-button","324","430537","0.0-19.6-0.6","columbia-card-task-hot","true","0","2","438","438","0","test","19","7","1","10","750","70","false","rigged_win","","","",""
"326","","pre_stim","single-stim-button","325","430865","0.0-19.7-0.7","columbia-card-task-hot","true","0","1","326","326","0","test","19","8","1","10","750","80","false","rigged_win","","","",""
"430","","pre_stim","single-stim-button","326","431298","0.0-19.8-0.8","columbia-card-task-hot","true","0","9","430","430","0","test","19","9","1","10","750","90","false","rigged_win","","","",""
"421","","pre_stim","single-stim-button","327","431721","0.0-19.9-0.9","columbia-card-task-hot","true","0","10","421","421","0","test","19","10","1","10","750","100","false","rigged_win","","","",""
"942","","pre_stim","single-stim-button","328","432665","0.0-19.10-0.10","columbia-card-task-hot","true","0","12","942","942","0","test","19","11","1","10","750","110","false","rigged_win","","","",""
"486","","pre_stim","single-stim-button","329","433154","0.0-19.11-0.11","columbia-card-task-hot","true","0","13","486","486","0","test","19","12","1","10","750","120","false","rigged_win","","","",""
"454","","pre_stim","single-stim-button","330","433609","0.0-19.12-0.12","columbia-card-task-hot","true","0","14","454","454","0","test","19","13","1","10","750","130","false","rigged_win","","","",""
"454","","pre_stim","single-stim-button","331","434065","0.0-19.13-0.13","columbia-card-task-hot","true","0","15","454","454","0","test","19","14","1","10","750","140","false","rigged_win","","","",""
"398","","pre_stim","single-stim-button","332","434465","0.0-19.14-0.14","columbia-card-task-hot","true","0","16","398","398","0","test","19","15","1","10","750","150","false","rigged_win","","","",""
"446","","pre_stim","single-stim-button","333","434913","0.0-19.15-0.15","columbia-card-task-hot","true","0","24","446","446","0","test","19","16","1","10","750","160","false","rigged_win","","","",""
"502","","pre_stim","single-stim-button","334","435417","0.0-19.16-0.16","columbia-card-task-hot","true","0","32","502","502","0","test","19","17","1","10","750","170","false","rigged_win","","","",""
"518","","pre_stim","single-stim-button","335","435938","0.0-19.17-0.17","columbia-card-task-hot","true","0","23","518","518","0","test","19","18","1","10","750","180","false","rigged_win","","","",""
"406","","pre_stim","single-stim-button","336","436346","0.0-19.18-0.18","columbia-card-task-hot","true","0","22","406","406","0","test","19","19","1","10","750","190","false","rigged_win","","","",""
"478","","pre_stim","single-stim-button","337","436825","0.0-19.19-0.19","columbia-card-task-hot","true","0","21","478","478","0","test","19","20","1","10","750","200","false","rigged_win","","","",""
"895","","pre_stim","single-stim-button","338","437721","0.0-19.20-0.20","columbia-card-task-hot","true","0","11","895","895","0","test","19","21","1","10","750","210","false","rigged_win","","","",""
"1751","","pre_stim","single-stim-button","339","439474","0.0-19.21-0.21","columbia-card-task-hot","true","0","31","1751","1751","0","test","19","22","1","10","750","220","false","rigged_win","","","",""
"366","","pre_stim","single-stim-button","340","439841","0.0-19.22-0.22","columbia-card-task-hot","true","0","30","366","366","0","test","19","23","1","10","750","230","false","rigged_win","","","",""
"383","","pre_stim","single-stim-button","341","440225","0.0-19.23-0.23","columbia-card-task-hot","true","0","29","383","383","0","test","19","24","1","10","750","240","false","rigged_win","","","",""
"1127","","pre_stim","single-stim-button","342","441353","0.0-19.24-0.24","columbia-card-task-hot","true","0","20","1127","1127","0","test","19","25","1","10","750","250","false","rigged_win","","","",""
"670","","pre_stim","single-stim-button","343","442025","0.0-19.25-0.25","columbia-card-task-hot","true","0","28","670","670","0","test","19","26","1","10","750","260","false","rigged_win","","","",""
"1766","","pre_stim","single-stim-button","344","443793","0.0-19.26-0.26","columbia-card-task-hot","true","0","turnButton","1766","1766","0","test","19","26","1","10","750","260","false","rigged_win","","","",""
"3870","","pre_stim","single-stim-button","345","447665","0.0-19.27-0.27","columbia-card-task-hot","true","0","collectButton","3870","3870","0","test","19","27","1","10","750","260","false","rigged_win","","","",""
"6614","","pre_stim","single-stim-button","346","454281","0.0-20.0-0.0","columbia-card-task-hot","true","0","1","6614","6614","0","test","20","1","1","10","250","10","false","rigged_loss","","","",""
"446","","pre_stim","single-stim-button","347","454729","0.0-20.1-0.1","columbia-card-task-hot","true","0","2","446","446","0","test","20","2","1","10","250","20","false","rigged_loss","","","",""
"470","","pre_stim","single-stim-button","348","455201","0.0-20.2-0.2","columbia-card-task-hot","true","0","3","470","470","0","test","20","3","1","10","250","30","false","rigged_loss","","","",""
"374","","pre_stim","single-stim-button","349","455577","0.0-20.3-0.3","columbia-card-task-hot","true","0","4","374","374","0","test","20","4","1","10","250","40","false","rigged_loss","","","",""
"374","","pre_stim","single-stim-button","350","455953","0.0-20.4-0.4","columbia-card-task-hot","true","0","5","374","374","0","test","20","5","1","10","250","50","false","rigged_loss","","","",""
"357","","pre_stim","single-stim-button","351","456313","0.0-20.5-0.5","columbia-card-task-hot","true","0","6","357","357","0","test","20","6","1","10","250","60","false","rigged_loss","","","",""
"383","","pre_stim","single-stim-button","352","456697","0.0-20.6-0.6","columbia-card-task-hot","true","0","7","383","383","0","test","20","7","1","10","250","70","false","rigged_loss","","","",""
"350","","pre_stim","single-stim-button","353","457049","0.0-20.7-0.7","columbia-card-task-hot","true","0","8","350","350","0","test","20","8","1","10","250","80","false","rigged_loss","","","",""
"918","","pre_stim","single-stim-button","354","457969","0.0-20.8-0.8","columbia-card-task-hot","true","0","9","918","918","0","test","20","9","1","10","250","90","false","rigged_loss","","","",""
"365","","pre_stim","single-stim-button","355","458337","0.0-20.9-0.9","columbia-card-task-hot","true","0","10","365","365","0","test","20","10","1","10","250","-160","true","rigged_loss","","","",""
"5335","","pre_stim","single-stim-button","356","463673","0.0-20.10-0.10","columbia-card-task-hot","true","0","collectButton","5335","5335","0","test","20","11","1","10","250","-160","true","rigged_loss","","","",""
"24403","{""Q0"":""So viele Gewinnkarten wie mglich umzudrehen, bevor man auf eine rote verlustkarte klickt."",""Q1"":""""}","post task questions","survey-text","357","488080","0.0-21.0","columbia-card-task-hot","true","0","","","","","","","","","","","","","","true","0","",""
"3969","","","poldrack-text","358","493064","0.0-22.0","columbia-card-task-hot","true","0","","","3969","1000","","","","","","","","","","","","<div class = centerbox><p class = center-block-text>Finished with this task.</p></div>","17"
