"rt","responses","trial_id","trial_type","trial_index","time_elapsed","internal_node_id","exp_id","full_screen","focus_shifts","mouse_click","stim_duration","block_duration","timing_post_trial","exp_stage","which_round","num_click_in_round","num_loss_cards","gain_amount","loss_amount","round_points","clicked_on_loss_card","round_type","credit_var","performance_var","text","key_press"
"7986","{""Q0"":""00BC9""}","pre task questions","survey-text","0","7988","0.0-0.0","columbia-card-task-hot","true","0","","","","","","","","","","","","","","","","",""
"6745","","pre_stim","single-stim-button","1","15748","0.0-1.0-0.0","columbia-card-task-hot","true","0","1","6745","6745","0","test","1","1","3","10","750","10","false","rigged_win","","","",""
"2407","","pre_stim","single-stim-button","2","18155","0.0-1.1-0.1","columbia-card-task-hot","true","0","2","2407","2407","0","test","1","2","3","10","750","20","false","rigged_win","","","",""
"1551","","pre_stim","single-stim-button","3","19707","0.0-1.2-0.2","columbia-card-task-hot","true","0","10","1551","1551","0","test","1","3","3","10","750","30","false","rigged_win","","","",""
"975","","pre_stim","single-stim-button","4","20682","0.0-1.3-0.3","columbia-card-task-hot","true","0","11","975","975","0","test","1","4","3","10","750","40","false","rigged_win","","","",""
"855","","pre_stim","single-stim-button","5","21539","0.0-1.4-0.4","columbia-card-task-hot","true","0","19","855","855","0","test","1","5","3","10","750","50","false","rigged_win","","","",""
"1047","","pre_stim","single-stim-button","6","22587","0.0-1.5-0.5","columbia-card-task-hot","true","0","18","1047","1047","0","test","1","6","3","10","750","60","false","rigged_win","","","",""
"4103","","pre_stim","single-stim-button","7","26691","0.0-1.6-0.6","columbia-card-task-hot","true","0","14","4103","4103","0","test","1","7","3","10","750","70","false","rigged_win","","","",""
"5519","","pre_stim","single-stim-button","8","32211","0.0-1.7-0.7","columbia-card-task-hot","true","0","turnButton","5519","5519","0","test","1","7","3","10","750","70","false","rigged_win","","","",""
"7895","","pre_stim","single-stim-button","9","40107","0.0-1.8-0.8","columbia-card-task-hot","true","0","collectButton","7895","7895","0","test","1","8","3","10","750","70","false","rigged_win","","","",""
"7007","","pre_stim","single-stim-button","10","47115","0.0-2.0-0.0","columbia-card-task-hot","true","0","1","7007","7007","0","test","2","1","1","10","250","10","false","rigged_win","","","",""
"407","","pre_stim","single-stim-button","11","47522","0.0-2.1-0.1","columbia-card-task-hot","true","0","2","407","407","0","test","2","2","1","10","250","20","false","rigged_win","","","",""
"431","","pre_stim","single-stim-button","12","47955","0.0-2.2-0.2","columbia-card-task-hot","true","0","3","431","431","0","test","2","3","1","10","250","30","false","rigged_win","","","",""
"1439","","pre_stim","single-stim-button","13","49395","0.0-2.3-0.3","columbia-card-task-hot","true","0","4","1439","1439","0","test","2","4","1","10","250","40","false","rigged_win","","","",""
"399","","pre_stim","single-stim-button","14","49795","0.0-2.4-0.4","columbia-card-task-hot","true","0","5","399","399","0","test","2","5","1","10","250","50","false","rigged_win","","","",""
"383","","pre_stim","single-stim-button","15","50178","0.0-2.5-0.5","columbia-card-task-hot","true","0","6","383","383","0","test","2","6","1","10","250","60","false","rigged_win","","","",""
"383","","pre_stim","single-stim-button","16","50563","0.0-2.6-0.6","columbia-card-task-hot","true","0","7","383","383","0","test","2","7","1","10","250","70","false","rigged_win","","","",""
"375","","pre_stim","single-stim-button","17","50939","0.0-2.7-0.7","columbia-card-task-hot","true","0","8","375","375","0","test","2","8","1","10","250","80","false","rigged_win","","","",""
"480","","pre_stim","single-stim-button","18","51419","0.0-2.8-0.8","columbia-card-task-hot","true","0","16","480","480","0","test","2","9","1","10","250","90","false","rigged_win","","","",""
"1398","","pre_stim","single-stim-button","19","52819","0.0-2.9-0.9","columbia-card-task-hot","true","0","15","1398","1398","0","test","2","10","1","10","250","100","false","rigged_win","","","",""
"448","","pre_stim","single-stim-button","20","53267","0.0-2.10-0.10","columbia-card-task-hot","true","0","14","448","448","0","test","2","11","1","10","250","110","false","rigged_win","","","",""
"479","","pre_stim","single-stim-button","21","53747","0.0-2.11-0.11","columbia-card-task-hot","true","0","13","479","479","0","test","2","12","1","10","250","120","false","rigged_win","","","",""
"399","","pre_stim","single-stim-button","22","54147","0.0-2.12-0.12","columbia-card-task-hot","true","0","21","399","399","0","test","2","13","1","10","250","130","false","rigged_win","","","",""
"423","","pre_stim","single-stim-button","23","54570","0.0-2.13-0.13","columbia-card-task-hot","true","0","22","423","423","0","test","2","14","1","10","250","140","false","rigged_win","","","",""
"400","","pre_stim","single-stim-button","24","54971","0.0-2.14-0.14","columbia-card-task-hot","true","0","23","400","400","0","test","2","15","1","10","250","150","false","rigged_win","","","",""
"391","","pre_stim","single-stim-button","25","55363","0.0-2.15-0.15","columbia-card-task-hot","true","0","24","391","391","0","test","2","16","1","10","250","160","false","rigged_win","","","",""
"456","","pre_stim","single-stim-button","26","55819","0.0-2.16-0.16","columbia-card-task-hot","true","0","32","456","456","0","test","2","17","1","10","250","170","false","rigged_win","","","",""
"807","","pre_stim","single-stim-button","27","56627","0.0-2.17-0.17","columbia-card-task-hot","true","0","30","807","807","0","test","2","18","1","10","250","180","false","rigged_win","","","",""
"543","","pre_stim","single-stim-button","28","57171","0.0-2.18-0.18","columbia-card-task-hot","true","0","31","543","543","0","test","2","19","1","10","250","190","false","rigged_win","","","",""
"1527","","pre_stim","single-stim-button","29","58699","0.0-2.19-0.19","columbia-card-task-hot","true","0","29","1527","1527","0","test","2","20","1","10","250","200","false","rigged_win","","","",""
"871","","pre_stim","single-stim-button","30","59571","0.0-2.20-0.20","columbia-card-task-hot","true","0","12","871","871","0","test","2","21","1","10","250","210","false","rigged_win","","","",""
"1367","","pre_stim","single-stim-button","31","60939","0.0-2.21-0.21","columbia-card-task-hot","true","0","11","1367","1367","0","test","2","22","1","10","250","220","false","rigged_win","","","",""
"2975","","pre_stim","single-stim-button","32","63915","0.0-2.22-0.22","columbia-card-task-hot","true","0","9","2975","2975","0","test","2","23","1","10","250","230","false","rigged_win","","","",""
"6663","","pre_stim","single-stim-button","33","70579","0.0-2.23-0.23","columbia-card-task-hot","true","0","turnButton","6663","6663","0","test","2","23","1","10","250","230","false","rigged_win","","","",""
"6102","","pre_stim","single-stim-button","34","76683","0.0-2.24-0.24","columbia-card-task-hot","true","0","collectButton","6102","6102","0","test","2","24","1","10","250","230","false","rigged_win","","","",""
"6352","","pre_stim","single-stim-button","35","83036","0.0-3.0-0.0","columbia-card-task-hot","true","0","25","6352","6352","0","test","3","1","3","10","750","10","false","rigged_loss","","","",""
"1214","","pre_stim","single-stim-button","36","84251","0.0-3.1-0.1","columbia-card-task-hot","true","0","17","1214","1214","0","test","3","2","3","10","750","20","false","rigged_loss","","","",""
"1095","","pre_stim","single-stim-button","37","85347","0.0-3.2-0.2","columbia-card-task-hot","true","0","26","1095","1095","0","test","3","3","3","10","750","30","false","rigged_loss","","","",""
"1848","","pre_stim","single-stim-button","38","87195","0.0-3.3-0.3","columbia-card-task-hot","true","0","2","1848","1848","0","test","3","4","3","10","750","40","false","rigged_loss","","","",""
"1030","","pre_stim","single-stim-button","39","88227","0.0-3.4-0.4","columbia-card-task-hot","true","0","4","1030","1030","0","test","3","5","3","10","750","50","false","rigged_loss","","","",""
"927","","pre_stim","single-stim-button","40","89155","0.0-3.5-0.5","columbia-card-task-hot","true","0","11","927","927","0","test","3","6","3","10","750","60","false","rigged_loss","","","",""
"1599","","pre_stim","single-stim-button","41","90755","0.0-3.6-0.6","columbia-card-task-hot","true","0","7","1599","1599","0","test","3","7","3","10","750","70","false","rigged_loss","","","",""
"1768","","pre_stim","single-stim-button","42","92523","0.0-3.7-0.7","columbia-card-task-hot","true","0","6","1768","1768","0","test","3","8","3","10","750","80","false","rigged_loss","","","",""
"5278","","pre_stim","single-stim-button","43","97803","0.0-3.8-0.8","columbia-card-task-hot","true","0","turnButton","5278","5278","0","test","3","8","3","10","750","80","false","rigged_loss","","","",""
"6720","","pre_stim","single-stim-button","44","104523","0.0-3.9-0.9","columbia-card-task-hot","true","0","collectButton","6720","6720","0","test","3","9","3","10","750","80","false","rigged_loss","","","",""
"7167","","pre_stim","single-stim-button","45","111691","0.0-4.0-0.0","columbia-card-task-hot","true","0","1","7167","7167","0","test","4","1","1","30","250","30","false","rigged_win","","","",""
"1206","","pre_stim","single-stim-button","46","112899","0.0-4.1-0.1","columbia-card-task-hot","true","0","2","1206","1206","0","test","4","2","1","30","250","60","false","rigged_win","","","",""
"455","","pre_stim","single-stim-button","47","113355","0.0-4.2-0.2","columbia-card-task-hot","true","0","3","455","455","0","test","4","3","1","30","250","90","false","rigged_win","","","",""
"439","","pre_stim","single-stim-button","48","113795","0.0-4.3-0.3","columbia-card-task-hot","true","0","4","439","439","0","test","4","4","1","30","250","120","false","rigged_win","","","",""
"384","","pre_stim","single-stim-button","49","114179","0.0-4.4-0.4","columbia-card-task-hot","true","0","5","384","384","0","test","4","5","1","30","250","150","false","rigged_win","","","",""
"382","","pre_stim","single-stim-button","50","114563","0.0-4.5-0.5","columbia-card-task-hot","true","0","6","382","382","0","test","4","6","1","30","250","180","false","rigged_win","","","",""
"375","","pre_stim","single-stim-button","51","114939","0.0-4.6-0.6","columbia-card-task-hot","true","0","7","375","375","0","test","4","7","1","30","250","210","false","rigged_win","","","",""
"343","","pre_stim","single-stim-button","52","115283","0.0-4.7-0.7","columbia-card-task-hot","true","0","8","343","343","0","test","4","8","1","30","250","240","false","rigged_win","","","",""
"400","","pre_stim","single-stim-button","53","115683","0.0-4.8-0.8","columbia-card-task-hot","true","0","16","400","400","0","test","4","9","1","30","250","270","false","rigged_win","","","",""
"391","","pre_stim","single-stim-button","54","116075","0.0-4.9-0.9","columbia-card-task-hot","true","0","15","391","391","0","test","4","10","1","30","250","300","false","rigged_win","","","",""
"614","","pre_stim","single-stim-button","55","116691","0.0-4.10-0.10","columbia-card-task-hot","true","0","14","614","614","0","test","4","11","1","30","250","330","false","rigged_win","","","",""
"471","","pre_stim","single-stim-button","56","117163","0.0-4.11-0.11","columbia-card-task-hot","true","0","13","471","471","0","test","4","12","1","30","250","360","false","rigged_win","","","",""
"622","","pre_stim","single-stim-button","57","117787","0.0-4.12-0.12","columbia-card-task-hot","true","0","12","622","622","0","test","4","13","1","30","250","390","false","rigged_win","","","",""
"350","","pre_stim","single-stim-button","58","118139","0.0-4.13-0.13","columbia-card-task-hot","true","0","11","350","350","0","test","4","14","1","30","250","420","false","rigged_win","","","",""
"358","","pre_stim","single-stim-button","59","118499","0.0-4.14-0.14","columbia-card-task-hot","true","0","10","358","358","0","test","4","15","1","30","250","450","false","rigged_win","","","",""
"407","","pre_stim","single-stim-button","60","118907","0.0-4.15-0.15","columbia-card-task-hot","true","0","9","407","407","0","test","4","16","1","30","250","480","false","rigged_win","","","",""
"511","","pre_stim","single-stim-button","61","119419","0.0-4.16-0.16","columbia-card-task-hot","true","0","17","511","511","0","test","4","17","1","30","250","510","false","rigged_win","","","",""
"519","","pre_stim","single-stim-button","62","119939","0.0-4.17-0.17","columbia-card-task-hot","true","0","25","519","519","0","test","4","18","1","30","250","540","false","rigged_win","","","",""
"870","","pre_stim","single-stim-button","63","120811","0.0-4.18-0.18","columbia-card-task-hot","true","0","24","870","870","0","test","4","19","1","30","250","570","false","rigged_win","","","",""
"359","","pre_stim","single-stim-button","64","121171","0.0-4.19-0.19","columbia-card-task-hot","true","0","32","359","359","0","test","4","20","1","30","250","600","false","rigged_win","","","",""
"1271","","pre_stim","single-stim-button","65","122443","0.0-4.20-0.20","columbia-card-task-hot","true","0","18","1271","1271","0","test","4","21","1","30","250","630","false","rigged_win","","","",""
"830","","pre_stim","single-stim-button","66","123275","0.0-4.21-0.21","columbia-card-task-hot","true","0","23","830","830","0","test","4","22","1","30","250","660","false","rigged_win","","","",""
"5031","","pre_stim","single-stim-button","67","128307","0.0-4.22-0.22","columbia-card-task-hot","true","0","31","5031","5031","0","test","4","23","1","30","250","690","false","rigged_win","","","",""
"1214","","pre_stim","single-stim-button","68","129523","0.0-4.23-0.23","columbia-card-task-hot","true","0","26","1214","1214","0","test","4","24","1","30","250","720","false","rigged_win","","","",""
"1894","","pre_stim","single-stim-button","69","131419","0.0-4.24-0.24","columbia-card-task-hot","true","0","turnButton","1894","1894","0","test","4","24","1","30","250","720","false","rigged_win","","","",""
"7662","","pre_stim","single-stim-button","70","139083","0.0-4.25-0.25","columbia-card-task-hot","true","0","collectButton","7662","7662","0","test","4","25","1","30","250","720","false","rigged_win","","","",""
"8584","","pre_stim","single-stim-button","71","147667","0.0-5.0-0.0","columbia-card-task-hot","true","0","1","8584","8584","0","test","5","1","1","10","250","10","false","rigged_win","","","",""
"647","","pre_stim","single-stim-button","72","148315","0.0-5.1-0.1","columbia-card-task-hot","true","0","2","647","647","0","test","5","2","1","10","250","20","false","rigged_win","","","",""
"526","","pre_stim","single-stim-button","73","148843","0.0-5.2-0.2","columbia-card-task-hot","true","0","10","526","526","0","test","5","3","1","10","250","30","false","rigged_win","","","",""
"439","","pre_stim","single-stim-button","74","149283","0.0-5.3-0.3","columbia-card-task-hot","true","0","18","439","439","0","test","5","4","1","10","250","40","false","rigged_win","","","",""
"487","","pre_stim","single-stim-button","75","149771","0.0-5.4-0.4","columbia-card-task-hot","true","0","26","487","487","0","test","5","5","1","10","250","50","false","rigged_win","","","",""
"927","","pre_stim","single-stim-button","76","150699","0.0-5.5-0.5","columbia-card-task-hot","true","0","9","927","927","0","test","5","6","1","10","250","60","false","rigged_win","","","",""
"528","","pre_stim","single-stim-button","77","151227","0.0-5.6-0.6","columbia-card-task-hot","true","0","17","528","528","0","test","5","7","1","10","250","70","false","rigged_win","","","",""
"727","","pre_stim","single-stim-button","78","151955","0.0-5.7-0.7","columbia-card-task-hot","true","0","25","727","727","0","test","5","8","1","10","250","80","false","rigged_win","","","",""
"1135","","pre_stim","single-stim-button","79","153091","0.0-5.8-0.8","columbia-card-task-hot","true","0","4","1135","1135","0","test","5","9","1","10","250","90","false","rigged_win","","","",""
"607","","pre_stim","single-stim-button","80","153699","0.0-5.9-0.9","columbia-card-task-hot","true","0","5","607","607","0","test","5","10","1","10","250","100","false","rigged_win","","","",""
"551","","pre_stim","single-stim-button","81","154251","0.0-5.10-0.10","columbia-card-task-hot","true","0","6","551","551","0","test","5","11","1","10","250","110","false","rigged_win","","","",""
"855","","pre_stim","single-stim-button","82","155107","0.0-5.11-0.11","columbia-card-task-hot","true","0","15","855","855","0","test","5","12","1","10","250","120","false","rigged_win","","","",""
"3830","","pre_stim","single-stim-button","83","158939","0.0-5.12-0.12","columbia-card-task-hot","true","0","7","3830","3830","0","test","5","13","1","10","250","130","false","rigged_win","","","",""
"727","","pre_stim","single-stim-button","84","159667","0.0-5.13-0.13","columbia-card-task-hot","true","0","8","727","727","0","test","5","14","1","10","250","140","false","rigged_win","","","",""
"903","","pre_stim","single-stim-button","85","160571","0.0-5.14-0.14","columbia-card-task-hot","true","0","3","903","903","0","test","5","15","1","10","250","150","false","rigged_win","","","",""
"807","","pre_stim","single-stim-button","86","161378","0.0-5.15-0.15","columbia-card-task-hot","true","0","11","807","807","0","test","5","16","1","10","250","160","false","rigged_win","","","",""
"3544","","pre_stim","single-stim-button","87","164923","0.0-5.16-0.16","columbia-card-task-hot","true","0","turnButton","3544","3544","0","test","5","16","1","10","250","160","false","rigged_win","","","",""
"6182","","pre_stim","single-stim-button","88","171107","0.0-5.17-0.17","columbia-card-task-hot","true","0","collectButton","6182","6182","0","test","5","17","1","10","250","160","false","rigged_win","","","",""
"6352","","pre_stim","single-stim-button","89","177459","0.0-6.0-0.0","columbia-card-task-hot","true","0","7","6352","6352","0","test","6","1","3","10","250","10","false","rigged_win","","","",""
"671","","pre_stim","single-stim-button","90","178131","0.0-6.1-0.1","columbia-card-task-hot","true","0","8","671","671","0","test","6","2","3","10","250","20","false","rigged_win","","","",""
"503","","pre_stim","single-stim-button","91","178635","0.0-6.2-0.2","columbia-card-task-hot","true","0","16","503","503","0","test","6","3","3","10","250","30","false","rigged_win","","","",""
"470","","pre_stim","single-stim-button","92","179107","0.0-6.3-0.3","columbia-card-task-hot","true","0","15","470","470","0","test","6","4","3","10","250","40","false","rigged_win","","","",""
"408","","pre_stim","single-stim-button","93","179515","0.0-6.4-0.4","columbia-card-task-hot","true","0","23","408","408","0","test","6","5","3","10","250","50","false","rigged_win","","","",""
"423","","pre_stim","single-stim-button","94","179939","0.0-6.5-0.5","columbia-card-task-hot","true","0","24","423","423","0","test","6","6","3","10","250","60","false","rigged_win","","","",""
"391","","pre_stim","single-stim-button","95","180331","0.0-6.6-0.6","columbia-card-task-hot","true","0","32","391","391","0","test","6","7","3","10","250","70","false","rigged_win","","","",""
"351","","pre_stim","single-stim-button","96","180683","0.0-6.7-0.7","columbia-card-task-hot","true","0","31","351","351","0","test","6","8","3","10","250","80","false","rigged_win","","","",""
"599","","pre_stim","single-stim-button","97","181283","0.0-6.8-0.8","columbia-card-task-hot","true","0","30","599","599","0","test","6","9","3","10","250","90","false","rigged_win","","","",""
"447","","pre_stim","single-stim-button","98","181731","0.0-6.9-0.9","columbia-card-task-hot","true","0","22","447","447","0","test","6","10","3","10","250","100","false","rigged_win","","","",""
"526","","pre_stim","single-stim-button","99","182259","0.0-6.10-0.10","columbia-card-task-hot","true","0","14","526","526","0","test","6","11","3","10","250","110","false","rigged_win","","","",""
"560","","pre_stim","single-stim-button","100","182819","0.0-6.11-0.11","columbia-card-task-hot","true","0","6","560","560","0","test","6","12","3","10","250","120","false","rigged_win","","","",""
"1678","","pre_stim","single-stim-button","101","184499","0.0-6.12-0.12","columbia-card-task-hot","true","0","5","1678","1678","0","test","6","13","3","10","250","130","false","rigged_win","","","",""
"6662","","pre_stim","single-stim-button","102","191163","0.0-6.13-0.13","columbia-card-task-hot","true","0","turnButton","6662","6662","0","test","6","13","3","10","250","130","false","rigged_win","","","",""
"6687","","pre_stim","single-stim-button","103","197851","0.0-6.14-0.14","columbia-card-task-hot","true","0","collectButton","6687","6687","0","test","6","14","3","10","250","130","false","rigged_win","","","",""
"11895","","pre_stim","single-stim-button","104","209748","0.0-7.0-0.0","columbia-card-task-hot","true","0","1","11895","11895","0","test","7","1","1","10","750","10","false","rigged_loss","","","",""
"710","","pre_stim","single-stim-button","105","210459","0.0-7.1-0.1","columbia-card-task-hot","true","0","9","710","710","0","test","7","2","1","10","750","20","false","rigged_loss","","","",""
"704","","pre_stim","single-stim-button","106","211163","0.0-7.2-0.2","columbia-card-task-hot","true","0","17","704","704","0","test","7","3","1","10","750","30","false","rigged_loss","","","",""
"743","","pre_stim","single-stim-button","107","211907","0.0-7.3-0.3","columbia-card-task-hot","true","0","25","743","743","0","test","7","4","1","10","750","40","false","rigged_loss","","","",""
"3559","","pre_stim","single-stim-button","108","215467","0.0-7.4-0.4","columbia-card-task-hot","true","0","2","3559","3559","0","test","7","5","1","10","750","-710","true","rigged_loss","","","",""
"5543","","pre_stim","single-stim-button","109","221011","0.0-7.5-0.5","columbia-card-task-hot","true","0","collectButton","5543","5543","0","test","7","6","1","10","750","-710","true","rigged_loss","","","",""
"9567","","pre_stim","single-stim-button","110","230580","0.0-8.0-0.0","columbia-card-task-hot","true","0","1","9567","9567","0","test","8","1","1","30","250","30","false","rigged_loss","","","",""
"543","","pre_stim","single-stim-button","111","231123","0.0-8.1-0.1","columbia-card-task-hot","true","0","2","543","543","0","test","8","2","1","30","250","60","false","rigged_loss","","","",""
"471","","pre_stim","single-stim-button","112","231595","0.0-8.2-0.2","columbia-card-task-hot","true","0","3","471","471","0","test","8","3","1","30","250","90","false","rigged_loss","","","",""
"471","","pre_stim","single-stim-button","113","232067","0.0-8.3-0.3","columbia-card-task-hot","true","0","11","471","471","0","test","8","4","1","30","250","120","false","rigged_loss","","","",""
"343","","pre_stim","single-stim-button","114","232411","0.0-8.4-0.4","columbia-card-task-hot","true","0","10","343","343","0","test","8","5","1","30","250","150","false","rigged_loss","","","",""
"391","","pre_stim","single-stim-button","115","232803","0.0-8.5-0.5","columbia-card-task-hot","true","0","9","391","391","0","test","8","6","1","30","250","180","false","rigged_loss","","","",""
"478","","pre_stim","single-stim-button","116","233283","0.0-8.6-0.6","columbia-card-task-hot","true","0","17","478","478","0","test","8","7","1","30","250","210","false","rigged_loss","","","",""
"384","","pre_stim","single-stim-button","117","233667","0.0-8.7-0.7","columbia-card-task-hot","true","0","18","384","384","0","test","8","8","1","30","250","-40","true","rigged_loss","","","",""
"5463","","pre_stim","single-stim-button","118","239131","0.0-8.8-0.8","columbia-card-task-hot","true","0","collectButton","5463","5463","0","test","8","9","1","30","250","-40","true","rigged_loss","","","",""
"8511","","pre_stim","single-stim-button","119","247643","0.0-9.0-0.0","columbia-card-task-hot","true","0","1","8511","8511","0","test","9","1","1","30","250","30","false","rigged_loss","","","",""
"998","","pre_stim","single-stim-button","120","248643","0.0-9.1-0.1","columbia-card-task-hot","true","0","2","998","998","0","test","9","2","1","30","250","60","false","rigged_loss","","","",""
"487","","pre_stim","single-stim-button","121","249131","0.0-9.2-0.2","columbia-card-task-hot","true","0","3","487","487","0","test","9","3","1","30","250","90","false","rigged_loss","","","",""
"438","","pre_stim","single-stim-button","122","249571","0.0-9.3-0.3","columbia-card-task-hot","true","0","11","438","438","0","test","9","4","1","30","250","120","false","rigged_loss","","","",""
"367","","pre_stim","single-stim-button","123","249939","0.0-9.4-0.4","columbia-card-task-hot","true","0","10","367","367","0","test","9","5","1","30","250","-130","true","rigged_loss","","","",""
"2750","","pre_stim","single-stim-button","124","252691","0.0-9.5-0.5","columbia-card-task-hot","true","0","collectButton","2750","2750","0","test","9","6","1","30","250","-130","true","rigged_loss","","","",""
"6184","","pre_stim","single-stim-button","125","258875","0.0-10.0-0.0","columbia-card-task-hot","true","0","8","6184","6184","0","test","10","1","3","10","750","10","false","rigged_win","","","",""
"566","","pre_stim","single-stim-button","126","259443","0.0-10.1-0.1","columbia-card-task-hot","true","0","7","566","566","0","test","10","2","3","10","750","20","false","rigged_win","","","",""
"1248","","pre_stim","single-stim-button","127","260691","0.0-10.2-0.2","columbia-card-task-hot","true","0","15","1248","1248","0","test","10","3","3","10","750","30","false","rigged_win","","","",""
"479","","pre_stim","single-stim-button","128","261171","0.0-10.3-0.3","columbia-card-task-hot","true","0","16","479","479","0","test","10","4","3","10","750","40","false","rigged_win","","","",""
"406","","pre_stim","single-stim-button","129","261579","0.0-10.4-0.4","columbia-card-task-hot","true","0","24","406","406","0","test","10","5","3","10","750","50","false","rigged_win","","","",""
"439","","pre_stim","single-stim-button","130","262019","0.0-10.5-0.5","columbia-card-task-hot","true","0","23","439","439","0","test","10","6","3","10","750","60","false","rigged_win","","","",""
"647","","pre_stim","single-stim-button","131","262667","0.0-10.6-0.6","columbia-card-task-hot","true","0","31","647","647","0","test","10","7","3","10","750","70","false","rigged_win","","","",""
"390","","pre_stim","single-stim-button","132","263059","0.0-10.7-0.7","columbia-card-task-hot","true","0","32","390","390","0","test","10","8","3","10","750","80","false","rigged_win","","","",""
"1295","","pre_stim","single-stim-button","133","264355","0.0-10.8-0.8","columbia-card-task-hot","true","0","turnButton","1295","1295","0","test","10","8","3","10","750","80","false","rigged_win","","","",""
"4967","","pre_stim","single-stim-button","134","269323","0.0-10.9-0.9","columbia-card-task-hot","true","0","collectButton","4967","4967","0","test","10","9","3","10","750","80","false","rigged_win","","","",""
"7935","","pre_stim","single-stim-button","135","277260","0.0-11.0-0.0","columbia-card-task-hot","true","0","17","7935","7935","0","test","11","1","1","30","750","30","false","rigged_loss","","","",""
"687","","pre_stim","single-stim-button","136","277947","0.0-11.1-0.1","columbia-card-task-hot","true","0","18","687","687","0","test","11","2","1","30","750","60","false","rigged_loss","","","",""
"534","","pre_stim","single-stim-button","137","278483","0.0-11.2-0.2","columbia-card-task-hot","true","0","26","534","534","0","test","11","3","1","30","750","90","false","rigged_loss","","","",""
"382","","pre_stim","single-stim-button","138","278867","0.0-11.3-0.3","columbia-card-task-hot","true","0","25","382","382","0","test","11","4","1","30","750","120","false","rigged_loss","","","",""
"808","","pre_stim","single-stim-button","139","279675","0.0-11.4-0.4","columbia-card-task-hot","true","0","9","808","808","0","test","11","5","1","30","750","150","false","rigged_loss","","","",""
"382","","pre_stim","single-stim-button","140","280059","0.0-11.5-0.5","columbia-card-task-hot","true","0","10","382","382","0","test","11","6","1","30","750","180","false","rigged_loss","","","",""
"623","","pre_stim","single-stim-button","141","280683","0.0-11.6-0.6","columbia-card-task-hot","true","0","2","623","623","0","test","11","7","1","30","750","210","false","rigged_loss","","","",""
"438","","pre_stim","single-stim-button","142","281123","0.0-11.7-0.7","columbia-card-task-hot","true","0","1","438","438","0","test","11","8","1","30","750","240","false","rigged_loss","","","",""
"959","","pre_stim","single-stim-button","143","282083","0.0-11.8-0.8","columbia-card-task-hot","true","0","3","959","959","0","test","11","9","1","30","750","270","false","rigged_loss","","","",""
"462","","pre_stim","single-stim-button","144","282547","0.0-11.9-0.9","columbia-card-task-hot","true","0","11","462","462","0","test","11","10","1","30","750","300","false","rigged_loss","","","",""
"415","","pre_stim","single-stim-button","145","282963","0.0-11.10-0.10","columbia-card-task-hot","true","0","19","415","415","0","test","11","11","1","30","750","-450","true","rigged_loss","","","",""
"2383","","pre_stim","single-stim-button","146","285347","0.0-11.11-0.11","columbia-card-task-hot","true","0","collectButton","2383","2383","0","test","11","12","1","30","750","-450","true","rigged_loss","","","",""
"7302","","pre_stim","single-stim-button","147","292651","0.0-12.0-0.0","columbia-card-task-hot","true","0","1","7302","7302","0","test","12","1","3","30","750","30","false","rigged_win","","","",""
"1198","","pre_stim","single-stim-button","148","293851","0.0-12.1-0.1","columbia-card-task-hot","true","0","2","1198","1198","0","test","12","2","3","30","750","60","false","rigged_win","","","",""
"702","","pre_stim","single-stim-button","149","294555","0.0-12.2-0.2","columbia-card-task-hot","true","0","3","702","702","0","test","12","3","3","30","750","90","false","rigged_win","","","",""
"759","","pre_stim","single-stim-button","150","295315","0.0-12.3-0.3","columbia-card-task-hot","true","0","10","759","759","0","test","12","4","3","30","750","120","false","rigged_win","","","",""
"1103","","pre_stim","single-stim-button","151","296419","0.0-12.4-0.4","columbia-card-task-hot","true","0","26","1103","1103","0","test","12","5","3","30","750","150","false","rigged_win","","","",""
"454","","pre_stim","single-stim-button","152","296875","0.0-12.5-0.5","columbia-card-task-hot","true","0","25","454","454","0","test","12","6","3","30","750","180","false","rigged_win","","","",""
"999","","pre_stim","single-stim-button","153","297875","0.0-12.6-0.6","columbia-card-task-hot","true","0","32","999","999","0","test","12","7","3","30","750","210","false","rigged_win","","","",""
"367","","pre_stim","single-stim-button","154","298243","0.0-12.7-0.7","columbia-card-task-hot","true","0","31","367","367","0","test","12","8","3","30","750","240","false","rigged_win","","","",""
"1037","","pre_stim","single-stim-button","155","299282","0.0-12.8-0.8","columbia-card-task-hot","true","0","8","1037","1037","0","test","12","9","3","30","750","270","false","rigged_win","","","",""
"438","","pre_stim","single-stim-button","156","299722","0.0-12.9-0.9","columbia-card-task-hot","true","0","7","438","438","0","test","12","10","3","30","750","300","false","rigged_win","","","",""
"927","","pre_stim","single-stim-button","157","300650","0.0-12.10-0.10","columbia-card-task-hot","true","0","6","927","927","0","test","12","11","3","30","750","330","false","rigged_win","","","",""
"2678","","pre_stim","single-stim-button","158","303330","0.0-12.11-0.11","columbia-card-task-hot","true","0","turnButton","2678","2678","0","test","12","11","3","30","750","330","false","rigged_win","","","",""
"6087","","pre_stim","single-stim-button","159","309418","0.0-12.12-0.12","columbia-card-task-hot","true","0","collectButton","6087","6087","0","test","12","12","3","30","750","330","false","rigged_win","","","",""
"8455","","pre_stim","single-stim-button","160","317875","0.0-13.0-0.0","columbia-card-task-hot","true","0","25","8455","8455","0","test","13","1","3","30","250","30","false","rigged_win","","","",""
"647","","pre_stim","single-stim-button","161","318522","0.0-13.1-0.1","columbia-card-task-hot","true","0","17","647","647","0","test","13","2","3","30","250","60","false","rigged_win","","","",""
"839","","pre_stim","single-stim-button","162","319362","0.0-13.2-0.2","columbia-card-task-hot","true","0","1","839","839","0","test","13","3","3","30","250","90","false","rigged_win","","","",""
"919","","pre_stim","single-stim-button","163","320282","0.0-13.3-0.3","columbia-card-task-hot","true","0","8","919","919","0","test","13","4","3","30","250","120","false","rigged_win","","","",""
"655","","pre_stim","single-stim-button","164","320938","0.0-13.4-0.4","columbia-card-task-hot","true","0","32","655","655","0","test","13","5","3","30","250","150","false","rigged_win","","","",""
"927","","pre_stim","single-stim-button","165","321866","0.0-13.5-0.5","columbia-card-task-hot","true","0","27","927","927","0","test","13","6","3","30","250","180","false","rigged_win","","","",""
"2135","","pre_stim","single-stim-button","166","324002","0.0-13.6-0.6","columbia-card-task-hot","true","0","29","2135","2135","0","test","13","7","3","30","250","210","false","rigged_win","","","",""
"3431","","pre_stim","single-stim-button","167","327434","0.0-13.7-0.7","columbia-card-task-hot","true","0","9","3431","3431","0","test","13","8","3","30","250","240","false","rigged_win","","","",""
"2079","","pre_stim","single-stim-button","168","329514","0.0-13.8-0.8","columbia-card-task-hot","true","0","3","2079","2079","0","test","13","9","3","30","250","270","false","rigged_win","","","",""
"2359","","pre_stim","single-stim-button","169","331874","0.0-13.9-0.9","columbia-card-task-hot","true","0","4","2359","2359","0","test","13","10","3","30","250","300","false","rigged_win","","","",""
"535","","pre_stim","single-stim-button","170","332410","0.0-13.10-0.10","columbia-card-task-hot","true","0","5","535","535","0","test","13","11","3","30","250","330","false","rigged_win","","","",""
"2247","","pre_stim","single-stim-button","171","334658","0.0-13.11-0.11","columbia-card-task-hot","true","0","2","2247","2247","0","test","13","12","3","30","250","360","false","rigged_win","","","",""
"2367","","pre_stim","single-stim-button","172","337026","0.0-13.12-0.12","columbia-card-task-hot","true","0","turnButton","2367","2367","0","test","13","12","3","30","250","360","false","rigged_win","","","",""
"6799","","pre_stim","single-stim-button","173","343826","0.0-13.13-0.13","columbia-card-task-hot","true","0","collectButton","6799","6799","0","test","13","13","3","30","250","360","false","rigged_win","","","",""
"7703","","pre_stim","single-stim-button","174","351531","0.0-14.0-0.0","columbia-card-task-hot","true","0","32","7703","7703","0","test","14","1","1","30","750","30","false","rigged_win","","","",""
"614","","pre_stim","single-stim-button","175","352146","0.0-14.1-0.1","columbia-card-task-hot","true","0","31","614","614","0","test","14","2","1","30","750","60","false","rigged_win","","","",""
"615","","pre_stim","single-stim-button","176","352762","0.0-14.2-0.2","columbia-card-task-hot","true","0","30","615","615","0","test","14","3","1","30","750","90","false","rigged_win","","","",""
"511","","pre_stim","single-stim-button","177","353274","0.0-14.3-0.3","columbia-card-task-hot","true","0","29","511","511","0","test","14","4","1","30","750","120","false","rigged_win","","","",""
"510","","pre_stim","single-stim-button","178","353786","0.0-14.4-0.4","columbia-card-task-hot","true","0","28","510","510","0","test","14","5","1","30","750","150","false","rigged_win","","","",""
"615","","pre_stim","single-stim-button","179","354402","0.0-14.5-0.5","columbia-card-task-hot","true","0","27","615","615","0","test","14","6","1","30","750","180","false","rigged_win","","","",""
"503","","pre_stim","single-stim-button","180","354906","0.0-14.6-0.6","columbia-card-task-hot","true","0","26","503","503","0","test","14","7","1","30","750","210","false","rigged_win","","","",""
"423","","pre_stim","single-stim-button","181","355330","0.0-14.7-0.7","columbia-card-task-hot","true","0","25","423","423","0","test","14","8","1","30","750","240","false","rigged_win","","","",""
"3287","","pre_stim","single-stim-button","182","358619","0.0-14.8-0.8","columbia-card-task-hot","true","0","23","3287","3287","0","test","14","9","1","30","750","270","false","rigged_win","","","",""
"886","","pre_stim","single-stim-button","183","359506","0.0-14.9-0.9","columbia-card-task-hot","true","0","24","886","886","0","test","14","10","1","30","750","300","false","rigged_win","","","",""
"2022","","pre_stim","single-stim-button","184","361529","0.0-14.10-0.10","columbia-card-task-hot","true","0","turnButton","2022","2022","0","test","14","10","1","30","750","300","false","rigged_win","","","",""
"5062","","pre_stim","single-stim-button","185","366594","0.0-14.11-0.11","columbia-card-task-hot","true","0","collectButton","5062","5062","0","test","14","11","1","30","750","300","false","rigged_win","","","",""
"6791","","pre_stim","single-stim-button","186","373386","0.0-15.0-0.0","columbia-card-task-hot","true","0","17","6791","6791","0","test","15","1","3","10","250","10","false","rigged_loss","","","",""
"406","","pre_stim","single-stim-button","187","373794","0.0-15.1-0.1","columbia-card-task-hot","true","0","25","406","406","0","test","15","2","3","10","250","20","false","rigged_loss","","","",""
"1526","","pre_stim","single-stim-button","188","375322","0.0-15.2-0.2","columbia-card-task-hot","true","0","26","1526","1526","0","test","15","3","3","10","250","30","false","rigged_loss","","","",""
"790","","pre_stim","single-stim-button","189","376114","0.0-15.3-0.3","columbia-card-task-hot","true","0","18","790","790","0","test","15","4","3","10","250","40","false","rigged_loss","","","",""
"1142","","pre_stim","single-stim-button","190","377258","0.0-15.4-0.4","columbia-card-task-hot","true","0","1","1142","1142","0","test","15","5","3","10","250","50","false","rigged_loss","","","",""
"486","","pre_stim","single-stim-button","191","377746","0.0-15.5-0.5","columbia-card-task-hot","true","0","2","486","486","0","test","15","6","3","10","250","60","false","rigged_loss","","","",""
"1190","","pre_stim","single-stim-button","192","378938","0.0-15.6-0.6","columbia-card-task-hot","true","0","3","1190","1190","0","test","15","7","3","10","250","70","false","rigged_loss","","","",""
"2502","","pre_stim","single-stim-button","193","381442","0.0-15.7-0.7","columbia-card-task-hot","true","0","9","2502","2502","0","test","15","8","3","10","250","-180","true","rigged_loss","","","",""
"3486","","pre_stim","single-stim-button","194","384930","0.0-15.8-0.8","columbia-card-task-hot","true","0","collectButton","3486","3486","0","test","15","9","3","10","250","-180","true","rigged_loss","","","",""
"8750","","pre_stim","single-stim-button","195","393682","0.0-16.0-0.0","columbia-card-task-hot","true","0","1","8750","8750","0","test","16","1","1","30","250","30","false","rigged_win","","","",""
"550","","pre_stim","single-stim-button","196","394234","0.0-16.1-0.1","columbia-card-task-hot","true","0","9","550","550","0","test","16","2","1","30","250","60","false","rigged_win","","","",""
"398","","pre_stim","single-stim-button","197","394634","0.0-16.2-0.2","columbia-card-task-hot","true","0","17","398","398","0","test","16","3","1","30","250","90","false","rigged_win","","","",""
"358","","pre_stim","single-stim-button","198","394994","0.0-16.3-0.3","columbia-card-task-hot","true","0","25","358","358","0","test","16","4","1","30","250","120","false","rigged_win","","","",""
"606","","pre_stim","single-stim-button","199","395602","0.0-16.4-0.4","columbia-card-task-hot","true","0","26","606","606","0","test","16","5","1","30","250","150","false","rigged_win","","","",""
"462","","pre_stim","single-stim-button","200","396066","0.0-16.5-0.5","columbia-card-task-hot","true","0","18","462","462","0","test","16","6","1","30","250","180","false","rigged_win","","","",""
"374","","pre_stim","single-stim-button","201","396442","0.0-16.6-0.6","columbia-card-task-hot","true","0","10","374","374","0","test","16","7","1","30","250","210","false","rigged_win","","","",""
"382","","pre_stim","single-stim-button","202","396826","0.0-16.7-0.7","columbia-card-task-hot","true","0","2","382","382","0","test","16","8","1","30","250","240","false","rigged_win","","","",""
"550","","pre_stim","single-stim-button","203","397378","0.0-16.8-0.8","columbia-card-task-hot","true","0","3","550","550","0","test","16","9","1","30","250","270","false","rigged_win","","","",""
"382","","pre_stim","single-stim-button","204","397762","0.0-16.9-0.9","columbia-card-task-hot","true","0","11","382","382","0","test","16","10","1","30","250","300","false","rigged_win","","","",""
"438","","pre_stim","single-stim-button","205","398202","0.0-16.10-0.10","columbia-card-task-hot","true","0","19","438","438","0","test","16","11","1","30","250","330","false","rigged_win","","","",""
"446","","pre_stim","single-stim-button","206","398650","0.0-16.11-0.11","columbia-card-task-hot","true","0","27","446","446","0","test","16","12","1","30","250","360","false","rigged_win","","","",""
"1502","","pre_stim","single-stim-button","207","400154","0.0-16.12-0.12","columbia-card-task-hot","true","0","28","1502","1502","0","test","16","13","1","30","250","390","false","rigged_win","","","",""
"438","","pre_stim","single-stim-button","208","400594","0.0-16.13-0.13","columbia-card-task-hot","true","0","20","438","438","0","test","16","14","1","30","250","420","false","rigged_win","","","",""
"398","","pre_stim","single-stim-button","209","400994","0.0-16.14-0.14","columbia-card-task-hot","true","0","12","398","398","0","test","16","15","1","30","250","450","false","rigged_win","","","",""
"398","","pre_stim","single-stim-button","210","401394","0.0-16.15-0.15","columbia-card-task-hot","true","0","4","398","398","0","test","16","16","1","30","250","480","false","rigged_win","","","",""
"606","","pre_stim","single-stim-button","211","402001","0.0-16.16-0.16","columbia-card-task-hot","true","0","5","606","606","0","test","16","17","1","30","250","510","false","rigged_win","","","",""
"583","","pre_stim","single-stim-button","212","402586","0.0-16.17-0.17","columbia-card-task-hot","true","0","13","583","583","0","test","16","18","1","30","250","540","false","rigged_win","","","",""
"422","","pre_stim","single-stim-button","213","403009","0.0-16.18-0.18","columbia-card-task-hot","true","0","21","422","422","0","test","16","19","1","30","250","570","false","rigged_win","","","",""
"391","","pre_stim","single-stim-button","214","403402","0.0-16.19-0.19","columbia-card-task-hot","true","0","29","391","391","0","test","16","20","1","30","250","600","false","rigged_win","","","",""
"807","","pre_stim","single-stim-button","215","404210","0.0-16.20-0.20","columbia-card-task-hot","true","0","30","807","807","0","test","16","21","1","30","250","630","false","rigged_win","","","",""
"406","","pre_stim","single-stim-button","216","404618","0.0-16.21-0.21","columbia-card-task-hot","true","0","31","406","406","0","test","16","22","1","30","250","660","false","rigged_win","","","",""
"367","","pre_stim","single-stim-button","217","404986","0.0-16.22-0.22","columbia-card-task-hot","true","0","32","367","367","0","test","16","23","1","30","250","690","false","rigged_win","","","",""
"1198","","pre_stim","single-stim-button","218","406186","0.0-16.23-0.23","columbia-card-task-hot","true","0","8","1198","1198","0","test","16","24","1","30","250","720","false","rigged_win","","","",""
"606","","pre_stim","single-stim-button","219","406794","0.0-16.24-0.24","columbia-card-task-hot","true","0","7","606","606","0","test","16","25","1","30","250","750","false","rigged_win","","","",""
"470","","pre_stim","single-stim-button","220","407266","0.0-16.25-0.25","columbia-card-task-hot","true","0","6","470","470","0","test","16","26","1","30","250","780","false","rigged_win","","","",""
"1014","","pre_stim","single-stim-button","221","408282","0.0-16.26-0.26","columbia-card-task-hot","true","0","16","1014","1014","0","test","16","27","1","30","250","810","false","rigged_win","","","",""
"606","","pre_stim","single-stim-button","222","408890","0.0-16.27-0.27","columbia-card-task-hot","true","0","24","606","606","0","test","16","28","1","30","250","840","false","rigged_win","","","",""
"1647","","pre_stim","single-stim-button","223","410538","0.0-16.28-0.28","columbia-card-task-hot","true","0","22","1647","1647","0","test","16","29","1","30","250","870","false","rigged_win","","","",""
"814","","pre_stim","single-stim-button","224","411354","0.0-16.29-0.29","columbia-card-task-hot","true","0","23","814","814","0","test","16","30","1","30","250","900","false","rigged_win","","","",""
"678","","pre_stim","single-stim-button","225","412034","0.0-16.30-0.30","columbia-card-task-hot","true","0","14","678","678","0","test","16","31","1","30","250","930","false","rigged_win","","","",""
"2486","","pre_stim","single-stim-button","226","414522","0.0-16.31-0.31","columbia-card-task-hot","true","0","turnButton","2486","2486","0","test","16","31","1","30","250","930","false","rigged_win","","","",""
"3823","","pre_stim","single-stim-button","227","418346","0.0-16.32-0.32","columbia-card-task-hot","true","0","collectButton","3823","3823","0","test","16","32","1","30","250","930","false","rigged_win","","","",""
"8565","","pre_stim","single-stim-button","228","426914","0.0-17.0-0.0","columbia-card-task-hot","true","0","NoCardButton","8565","8565","0","test","17","1","1","30","750","0","false","rigged_win","","","",""
"3166","","pre_stim","single-stim-button","229","430082","0.0-17.1-0.1","columbia-card-task-hot","true","0","collectButton","3166","3166","0","test","17","2","1","30","750","0","false","rigged_win","","","",""
"7974","","pre_stim","single-stim-button","230","438058","0.0-18.0-0.0","columbia-card-task-hot","true","0","1","7974","7974","0","test","18","1","1","10","750","10","false","rigged_win","","","",""
"454","","pre_stim","single-stim-button","231","438514","0.0-18.1-0.1","columbia-card-task-hot","true","0","2","454","454","0","test","18","2","1","10","750","20","false","rigged_win","","","",""
"494","","pre_stim","single-stim-button","232","439010","0.0-18.2-0.2","columbia-card-task-hot","true","0","3","494","494","0","test","18","3","1","10","750","30","false","rigged_win","","","",""
"566","","pre_stim","single-stim-button","233","439578","0.0-18.3-0.3","columbia-card-task-hot","true","0","9","566","566","0","test","18","4","1","10","750","40","false","rigged_win","","","",""
"430","","pre_stim","single-stim-button","234","440010","0.0-18.4-0.4","columbia-card-task-hot","true","0","10","430","430","0","test","18","5","1","10","750","50","false","rigged_win","","","",""
"438","","pre_stim","single-stim-button","235","440450","0.0-18.5-0.5","columbia-card-task-hot","true","0","11","438","438","0","test","18","6","1","10","750","60","false","rigged_win","","","",""
"574","","pre_stim","single-stim-button","236","441026","0.0-18.6-0.6","columbia-card-task-hot","true","0","17","574","574","0","test","18","7","1","10","750","70","false","rigged_win","","","",""
"366","","pre_stim","single-stim-button","237","441394","0.0-18.7-0.7","columbia-card-task-hot","true","0","18","366","366","0","test","18","8","1","10","750","80","false","rigged_win","","","",""
"365","","pre_stim","single-stim-button","238","441761","0.0-18.8-0.8","columbia-card-task-hot","true","0","19","365","365","0","test","18","9","1","10","750","90","false","rigged_win","","","",""
"647","","pre_stim","single-stim-button","239","442410","0.0-18.9-0.9","columbia-card-task-hot","true","0","25","647","647","0","test","18","10","1","10","750","100","false","rigged_win","","","",""
"318","","pre_stim","single-stim-button","240","442730","0.0-18.10-0.10","columbia-card-task-hot","true","0","26","318","318","0","test","18","11","1","10","750","110","false","rigged_win","","","",""
"342","","pre_stim","single-stim-button","241","443073","0.0-18.11-0.11","columbia-card-task-hot","true","0","27","342","342","0","test","18","12","1","10","750","120","false","rigged_win","","","",""
"1510","","pre_stim","single-stim-button","242","444585","0.0-18.12-0.12","columbia-card-task-hot","true","0","4","1510","1510","0","test","18","13","1","10","750","130","false","rigged_win","","","",""
"311","","pre_stim","single-stim-button","243","444897","0.0-18.13-0.13","columbia-card-task-hot","true","0","5","311","311","0","test","18","14","1","10","750","140","false","rigged_win","","","",""
"511","","pre_stim","single-stim-button","244","445409","0.0-18.14-0.14","columbia-card-task-hot","true","0","6","511","511","0","test","18","15","1","10","750","150","false","rigged_win","","","",""
"366","","pre_stim","single-stim-button","245","445777","0.0-18.15-0.15","columbia-card-task-hot","true","0","7","366","366","0","test","18","16","1","10","750","160","false","rigged_win","","","",""
"406","","pre_stim","single-stim-button","246","446186","0.0-18.16-0.16","columbia-card-task-hot","true","0","8","406","406","0","test","18","17","1","10","750","170","false","rigged_win","","","",""
"782","","pre_stim","single-stim-button","247","446970","0.0-18.17-0.17","columbia-card-task-hot","true","0","turnButton","782","782","0","test","18","17","1","10","750","170","false","rigged_win","","","",""
"4910","","pre_stim","single-stim-button","248","451881","0.0-18.18-0.18","columbia-card-task-hot","true","0","collectButton","4910","4910","0","test","18","18","1","10","750","170","false","rigged_win","","","",""
"6382","","pre_stim","single-stim-button","249","458266","0.0-19.0-0.0","columbia-card-task-hot","true","0","25","6382","6382","0","test","19","1","1","30","250","30","false","rigged_loss","","","",""
"478","","pre_stim","single-stim-button","250","458745","0.0-19.1-0.1","columbia-card-task-hot","true","0","17","478","478","0","test","19","2","1","30","250","60","false","rigged_loss","","","",""
"471","","pre_stim","single-stim-button","251","459218","0.0-19.2-0.2","columbia-card-task-hot","true","0","9","471","471","0","test","19","3","1","30","250","90","false","rigged_loss","","","",""
"574","","pre_stim","single-stim-button","252","459794","0.0-19.3-0.3","columbia-card-task-hot","true","0","1","574","574","0","test","19","4","1","30","250","120","false","rigged_loss","","","",""
"950","","pre_stim","single-stim-button","253","460745","0.0-19.4-0.4","columbia-card-task-hot","true","0","2","950","950","0","test","19","5","1","30","250","150","false","rigged_loss","","","",""
"526","","pre_stim","single-stim-button","254","461274","0.0-19.5-0.5","columbia-card-task-hot","true","0","3","526","526","0","test","19","6","1","30","250","180","false","rigged_loss","","","",""
"390","","pre_stim","single-stim-button","255","461666","0.0-19.6-0.6","columbia-card-task-hot","true","0","11","390","390","0","test","19","7","1","30","250","210","false","rigged_loss","","","",""
"486","","pre_stim","single-stim-button","256","462153","0.0-19.7-0.7","columbia-card-task-hot","true","0","10","486","486","0","test","19","8","1","30","250","240","false","rigged_loss","","","",""
"630","","pre_stim","single-stim-button","257","462786","0.0-19.8-0.8","columbia-card-task-hot","true","0","18","630","630","0","test","19","9","1","30","250","-10","true","rigged_loss","","","",""
"3885","","pre_stim","single-stim-button","258","466673","0.0-19.9-0.9","columbia-card-task-hot","true","0","collectButton","3885","3885","0","test","19","10","1","30","250","-10","true","rigged_loss","","","",""
"7694","","pre_stim","single-stim-button","259","474370","0.0-20.0-0.0","columbia-card-task-hot","true","0","1","7694","7694","0","test","20","1","3","10","250","10","false","rigged_win","","","",""
"998","","pre_stim","single-stim-button","260","475369","0.0-20.1-0.1","columbia-card-task-hot","true","0","9","998","998","0","test","20","2","3","10","250","20","false","rigged_win","","","",""
"1118","","pre_stim","single-stim-button","261","476489","0.0-20.2-0.2","columbia-card-task-hot","true","0","turnButton","1118","1118","0","test","20","2","3","10","250","20","false","rigged_win","","","",""
"4757","","pre_stim","single-stim-button","262","481248","0.0-20.3-0.3","columbia-card-task-hot","true","0","collectButton","4757","4757","0","test","20","3","3","10","250","20","false","rigged_win","","","",""
"41005","{""Q0"":""Karten mit positiven Wert umdrehen"",""Q1"":""Gar nicht so einfach""}","post task questions","survey-text","263","522257","0.0-21.0","columbia-card-task-hot","true","0","","","","","","","","","","","","","","true","0","",""
"7201","","","poldrack-text","264","530481","0.0-22.0","columbia-card-task-hot","true","0","","","7201","1000","","","","","","","","","","","","<div class = centerbox><p class = center-block-text>Finished with this task.</p></div>","91"
