"rt","responses","trial_id","trial_type","trial_index","time_elapsed","internal_node_id","exp_id","full_screen","focus_shifts","mouse_click","stim_duration","block_duration","timing_post_trial","exp_stage","which_round","num_click_in_round","num_loss_cards","gain_amount","loss_amount","round_points","clicked_on_loss_card","round_type","credit_var","performance_var","text","key_press"
"9249","{""Q0"":""0Uubv""}","pre task questions","survey-text","0","9253","0.0-0.0","columbia-card-task-hot","false","0","","","","","","","","","","","","","","","","",""
"6324","","pre_stim","single-stim-button","1","16580","0.0-1.0-0.0","columbia-card-task-hot","false","0","1","6324","6324","0","test","1","1","3","30","250","30","false","rigged_win","","","",""
"711","","pre_stim","single-stim-button","2","17291","0.0-1.1-0.1","columbia-card-task-hot","false","0","9","711","711","0","test","1","2","3","30","250","60","false","rigged_win","","","",""
"591","","pre_stim","single-stim-button","3","17884","0.0-1.2-0.2","columbia-card-task-hot","false","0","17","591","591","0","test","1","3","3","30","250","90","false","rigged_win","","","",""
"791","","pre_stim","single-stim-button","4","18675","0.0-1.3-0.3","columbia-card-task-hot","false","0","25","791","791","0","test","1","4","3","30","250","120","false","rigged_win","","","",""
"848","","pre_stim","single-stim-button","5","19524","0.0-1.4-0.4","columbia-card-task-hot","false","0","2","848","848","0","test","1","5","3","30","250","150","false","rigged_win","","","",""
"687","","pre_stim","single-stim-button","6","20211","0.0-1.5-0.5","columbia-card-task-hot","false","0","3","687","687","0","test","1","6","3","30","250","180","false","rigged_win","","","",""
"743","","pre_stim","single-stim-button","7","20955","0.0-1.6-0.6","columbia-card-task-hot","false","0","4","743","743","0","test","1","7","3","30","250","210","false","rigged_win","","","",""
"687","","pre_stim","single-stim-button","8","21643","0.0-1.7-0.7","columbia-card-task-hot","false","0","5","687","687","0","test","1","8","3","30","250","240","false","rigged_win","","","",""
"831","","pre_stim","single-stim-button","9","22475","0.0-1.8-0.8","columbia-card-task-hot","false","0","10","831","831","0","test","1","9","3","30","250","270","false","rigged_win","","","",""
"638","","pre_stim","single-stim-button","10","23115","0.0-1.9-0.9","columbia-card-task-hot","false","0","11","638","638","0","test","1","10","3","30","250","300","false","rigged_win","","","",""
"664","","pre_stim","single-stim-button","11","23779","0.0-1.10-0.10","columbia-card-task-hot","false","0","18","664","664","0","test","1","11","3","30","250","330","false","rigged_win","","","",""
"1216","","pre_stim","single-stim-button","12","24995","0.0-1.11-0.11","columbia-card-task-hot","false","0","32","1216","1216","0","test","1","12","3","30","250","360","false","rigged_win","","","",""
"598","","pre_stim","single-stim-button","13","25595","0.0-1.12-0.12","columbia-card-task-hot","false","0","24","598","598","0","test","1","13","3","30","250","390","false","rigged_win","","","",""
"736","","pre_stim","single-stim-button","14","26331","0.0-1.13-0.13","columbia-card-task-hot","false","0","16","736","736","0","test","1","14","3","30","250","420","false","rigged_win","","","",""
"792","","pre_stim","single-stim-button","15","27124","0.0-1.14-0.14","columbia-card-task-hot","false","0","8","792","792","0","test","1","15","3","30","250","450","false","rigged_win","","","",""
"471","","pre_stim","single-stim-button","16","27596","0.0-1.15-0.15","columbia-card-task-hot","false","0","7","471","471","0","test","1","16","3","30","250","480","false","rigged_win","","","",""
"1079","","pre_stim","single-stim-button","17","28676","0.0-1.16-0.16","columbia-card-task-hot","false","0","6","1079","1079","0","test","1","17","3","30","250","510","false","rigged_win","","","",""
"687","","pre_stim","single-stim-button","18","29363","0.0-1.17-0.17","columbia-card-task-hot","false","0","15","687","687","0","test","1","18","3","30","250","540","false","rigged_win","","","",""
"703","","pre_stim","single-stim-button","19","30067","0.0-1.18-0.18","columbia-card-task-hot","false","0","23","703","703","0","test","1","19","3","30","250","570","false","rigged_win","","","",""
"511","","pre_stim","single-stim-button","20","30579","0.0-1.19-0.19","columbia-card-task-hot","false","0","31","511","511","0","test","1","20","3","30","250","600","false","rigged_win","","","",""
"383","","pre_stim","single-stim-button","21","30963","0.0-1.20-0.20","columbia-card-task-hot","false","0","30","383","383","0","test","1","21","3","30","250","630","false","rigged_win","","","",""
"678","","pre_stim","single-stim-button","22","31643","0.0-1.21-0.21","columbia-card-task-hot","false","0","29","678","678","0","test","1","22","3","30","250","660","false","rigged_win","","","",""
"752","","pre_stim","single-stim-button","23","32395","0.0-1.22-0.22","columbia-card-task-hot","false","0","27","752","752","0","test","1","23","3","30","250","690","false","rigged_win","","","",""
"647","","pre_stim","single-stim-button","24","33043","0.0-1.23-0.23","columbia-card-task-hot","false","0","26","647","647","0","test","1","24","3","30","250","720","false","rigged_win","","","",""
"1128","","pre_stim","single-stim-button","25","34171","0.0-1.24-0.24","columbia-card-task-hot","false","0","19","1128","1128","0","test","1","25","3","30","250","750","false","rigged_win","","","",""
"775","","pre_stim","single-stim-button","26","34947","0.0-1.25-0.25","columbia-card-task-hot","false","0","12","775","775","0","test","1","26","3","30","250","780","false","rigged_win","","","",""
"1152","","pre_stim","single-stim-button","27","36099","0.0-1.26-0.26","columbia-card-task-hot","false","0","28","1152","1152","0","test","1","27","3","30","250","810","false","rigged_win","","","",""
"3087","","pre_stim","single-stim-button","28","39187","0.0-1.27-0.27","columbia-card-task-hot","false","0","13","3087","3087","0","test","1","28","3","30","250","840","false","rigged_win","","","",""
"1183","","pre_stim","single-stim-button","29","40371","0.0-1.28-0.28","columbia-card-task-hot","false","0","turnButton","1183","1183","0","test","1","28","3","30","250","840","false","rigged_win","","","",""
"2847","","pre_stim","single-stim-button","30","43219","0.0-1.29-0.29","columbia-card-task-hot","false","0","collectButton","2847","2847","0","test","1","29","3","30","250","840","false","rigged_win","","","",""
"7527","","pre_stim","single-stim-button","31","50748","0.0-2.0-0.0","columbia-card-task-hot","false","0","3","7527","7527","0","test","2","1","1","10","250","10","false","rigged_loss","","","",""
"815","","pre_stim","single-stim-button","32","51564","0.0-2.1-0.1","columbia-card-task-hot","false","0","4","815","815","0","test","2","2","1","10","250","20","false","rigged_loss","","","",""
"1175","","pre_stim","single-stim-button","33","52739","0.0-2.2-0.2","columbia-card-task-hot","false","0","2","1175","1175","0","test","2","3","1","10","250","30","false","rigged_loss","","","",""
"2095","","pre_stim","single-stim-button","34","54835","0.0-2.3-0.3","columbia-card-task-hot","false","0","1","2095","2095","0","test","2","4","1","10","250","40","false","rigged_loss","","","",""
"495","","pre_stim","single-stim-button","35","55331","0.0-2.4-0.4","columbia-card-task-hot","false","0","9","495","495","0","test","2","5","1","10","250","50","false","rigged_loss","","","",""
"639","","pre_stim","single-stim-button","36","55971","0.0-2.5-0.5","columbia-card-task-hot","false","0","17","639","639","0","test","2","6","1","10","250","60","false","rigged_loss","","","",""
"952","","pre_stim","single-stim-button","37","56923","0.0-2.6-0.6","columbia-card-task-hot","false","0","25","952","952","0","test","2","7","1","10","250","70","false","rigged_loss","","","",""
"584","","pre_stim","single-stim-button","38","57508","0.0-2.7-0.7","columbia-card-task-hot","false","0","26","584","584","0","test","2","8","1","10","250","80","false","rigged_loss","","","",""
"774","","pre_stim","single-stim-button","39","58283","0.0-2.8-0.8","columbia-card-task-hot","false","0","19","774","774","0","test","2","9","1","10","250","90","false","rigged_loss","","","",""
"711","","pre_stim","single-stim-button","40","58995","0.0-2.9-0.9","columbia-card-task-hot","false","0","12","711","711","0","test","2","10","1","10","250","-160","true","rigged_loss","","","",""
"4078","","pre_stim","single-stim-button","41","63075","0.0-2.10-0.10","columbia-card-task-hot","false","0","collectButton","4078","4078","0","test","2","11","1","10","250","-160","true","rigged_loss","","","",""
"6240","","pre_stim","single-stim-button","42","69316","0.0-3.0-0.0","columbia-card-task-hot","false","0","8","6240","6240","0","test","3","1","1","10","250","10","false","rigged_win","","","",""
"758","","pre_stim","single-stim-button","43","70075","0.0-3.1-0.1","columbia-card-task-hot","false","0","7","758","758","0","test","3","2","1","10","250","20","false","rigged_win","","","",""
"591","","pre_stim","single-stim-button","44","70666","0.0-3.2-0.2","columbia-card-task-hot","false","0","16","591","591","0","test","3","3","1","10","250","30","false","rigged_win","","","",""
"447","","pre_stim","single-stim-button","45","71115","0.0-3.3-0.3","columbia-card-task-hot","false","0","32","447","447","0","test","3","4","1","10","250","40","false","rigged_win","","","",""
"631","","pre_stim","single-stim-button","46","71747","0.0-3.4-0.4","columbia-card-task-hot","false","0","24","631","631","0","test","3","5","1","10","250","50","false","rigged_win","","","",""
"503","","pre_stim","single-stim-button","47","72251","0.0-3.5-0.5","columbia-card-task-hot","false","0","23","503","503","0","test","3","6","1","10","250","60","false","rigged_win","","","",""
"623","","pre_stim","single-stim-button","48","72875","0.0-3.6-0.6","columbia-card-task-hot","false","0","22","623","623","0","test","3","7","1","10","250","70","false","rigged_win","","","",""
"583","","pre_stim","single-stim-button","49","73459","0.0-3.7-0.7","columbia-card-task-hot","false","0","30","583","583","0","test","3","8","1","10","250","80","false","rigged_win","","","",""
"887","","pre_stim","single-stim-button","50","74347","0.0-3.8-0.8","columbia-card-task-hot","false","0","15","887","887","0","test","3","9","1","10","250","90","false","rigged_win","","","",""
"511","","pre_stim","single-stim-button","51","74859","0.0-3.9-0.9","columbia-card-task-hot","false","0","14","511","511","0","test","3","10","1","10","250","100","false","rigged_win","","","",""
"543","","pre_stim","single-stim-button","52","75403","0.0-3.10-0.10","columbia-card-task-hot","false","0","6","543","543","0","test","3","11","1","10","250","110","false","rigged_win","","","",""
"1887","","pre_stim","single-stim-button","53","77291","0.0-3.11-0.11","columbia-card-task-hot","false","0","5","1887","1887","0","test","3","12","1","10","250","120","false","rigged_win","","","",""
"847","","pre_stim","single-stim-button","54","78139","0.0-3.12-0.12","columbia-card-task-hot","false","0","1","847","847","0","test","3","13","1","10","250","130","false","rigged_win","","","",""
"431","","pre_stim","single-stim-button","55","78571","0.0-3.13-0.13","columbia-card-task-hot","false","0","2","431","431","0","test","3","14","1","10","250","140","false","rigged_win","","","",""
"879","","pre_stim","single-stim-button","56","79451","0.0-3.14-0.14","columbia-card-task-hot","false","0","9","879","879","0","test","3","15","1","10","250","150","false","rigged_win","","","",""
"455","","pre_stim","single-stim-button","57","79906","0.0-3.15-0.15","columbia-card-task-hot","false","0","17","455","455","0","test","3","16","1","10","250","160","false","rigged_win","","","",""
"895","","pre_stim","single-stim-button","58","80802","0.0-3.16-0.16","columbia-card-task-hot","false","0","25","895","895","0","test","3","17","1","10","250","170","false","rigged_win","","","",""
"855","","pre_stim","single-stim-button","59","81659","0.0-3.17-0.17","columbia-card-task-hot","false","0","4","855","855","0","test","3","18","1","10","250","180","false","rigged_win","","","",""
"359","","pre_stim","single-stim-button","60","82018","0.0-3.18-0.18","columbia-card-task-hot","false","0","3","359","359","0","test","3","19","1","10","250","190","false","rigged_win","","","",""
"856","","pre_stim","single-stim-button","61","82875","0.0-3.19-0.19","columbia-card-task-hot","false","0","10","856","856","0","test","3","20","1","10","250","200","false","rigged_win","","","",""
"598","","pre_stim","single-stim-button","62","83475","0.0-3.20-0.20","columbia-card-task-hot","false","0","18","598","598","0","test","3","21","1","10","250","210","false","rigged_win","","","",""
"839","","pre_stim","single-stim-button","63","84315","0.0-3.21-0.21","columbia-card-task-hot","false","0","26","839","839","0","test","3","22","1","10","250","220","false","rigged_win","","","",""
"567","","pre_stim","single-stim-button","64","84883","0.0-3.22-0.22","columbia-card-task-hot","false","0","11","567","567","0","test","3","23","1","10","250","230","false","rigged_win","","","",""
"895","","pre_stim","single-stim-button","65","85779","0.0-3.23-0.23","columbia-card-task-hot","false","0","27","895","895","0","test","3","24","1","10","250","240","false","rigged_win","","","",""
"879","","pre_stim","single-stim-button","66","86659","0.0-3.24-0.24","columbia-card-task-hot","false","0","28","879","879","0","test","3","25","1","10","250","250","false","rigged_win","","","",""
"703","","pre_stim","single-stim-button","67","87363","0.0-3.25-0.25","columbia-card-task-hot","false","0","29","703","703","0","test","3","26","1","10","250","260","false","rigged_win","","","",""
"823","","pre_stim","single-stim-button","68","88187","0.0-3.26-0.26","columbia-card-task-hot","false","0","20","823","823","0","test","3","27","1","10","250","270","false","rigged_win","","","",""
"1070","","pre_stim","single-stim-button","69","89258","0.0-3.27-0.27","columbia-card-task-hot","false","0","13","1070","1070","0","test","3","28","1","10","250","280","false","rigged_win","","","",""
"1903","","pre_stim","single-stim-button","70","91162","0.0-3.28-0.28","columbia-card-task-hot","false","0","turnButton","1903","1903","0","test","3","28","1","10","250","280","false","rigged_win","","","",""
"3695","","pre_stim","single-stim-button","71","94858","0.0-3.29-0.29","columbia-card-task-hot","false","0","collectButton","3695","3695","0","test","3","29","1","10","250","280","false","rigged_win","","","",""
"6959","","pre_stim","single-stim-button","72","101819","0.0-4.0-0.0","columbia-card-task-hot","false","0","1","6959","6959","0","test","4","1","1","10","250","10","false","rigged_win","","","",""
"743","","pre_stim","single-stim-button","73","102563","0.0-4.1-0.1","columbia-card-task-hot","false","0","2","743","743","0","test","4","2","1","10","250","20","false","rigged_win","","","",""
"711","","pre_stim","single-stim-button","74","103275","0.0-4.2-0.2","columbia-card-task-hot","false","0","3","711","711","0","test","4","3","1","10","250","30","false","rigged_win","","","",""
"927","","pre_stim","single-stim-button","75","104203","0.0-4.3-0.3","columbia-card-task-hot","false","0","4","927","927","0","test","4","4","1","10","250","40","false","rigged_win","","","",""
"710","","pre_stim","single-stim-button","76","104915","0.0-4.4-0.4","columbia-card-task-hot","false","0","5","710","710","0","test","4","5","1","10","250","50","false","rigged_win","","","",""
"519","","pre_stim","single-stim-button","77","105435","0.0-4.5-0.5","columbia-card-task-hot","false","0","6","519","519","0","test","4","6","1","10","250","60","false","rigged_win","","","",""
"607","","pre_stim","single-stim-button","78","106043","0.0-4.6-0.6","columbia-card-task-hot","false","0","7","607","607","0","test","4","7","1","10","250","70","false","rigged_win","","","",""
"911","","pre_stim","single-stim-button","79","106955","0.0-4.7-0.7","columbia-card-task-hot","false","0","8","911","911","0","test","4","8","1","10","250","80","false","rigged_win","","","",""
"927","","pre_stim","single-stim-button","80","107883","0.0-4.8-0.8","columbia-card-task-hot","false","0","9","927","927","0","test","4","9","1","10","250","90","false","rigged_win","","","",""
"815","","pre_stim","single-stim-button","81","108699","0.0-4.9-0.9","columbia-card-task-hot","false","0","17","815","815","0","test","4","10","1","10","250","100","false","rigged_win","","","",""
"639","","pre_stim","single-stim-button","82","109339","0.0-4.10-0.10","columbia-card-task-hot","false","0","25","639","639","0","test","4","11","1","10","250","110","false","rigged_win","","","",""
"823","","pre_stim","single-stim-button","83","110163","0.0-4.11-0.11","columbia-card-task-hot","false","0","10","823","823","0","test","4","12","1","10","250","120","false","rigged_win","","","",""
"791","","pre_stim","single-stim-button","84","110955","0.0-4.12-0.12","columbia-card-task-hot","false","0","18","791","791","0","test","4","13","1","10","250","130","false","rigged_win","","","",""
"511","","pre_stim","single-stim-button","85","111467","0.0-4.13-0.13","columbia-card-task-hot","false","0","11","511","511","0","test","4","14","1","10","250","140","false","rigged_win","","","",""
"511","","pre_stim","single-stim-button","86","111978","0.0-4.14-0.14","columbia-card-task-hot","false","0","26","511","511","0","test","4","15","1","10","250","150","false","rigged_win","","","",""
"463","","pre_stim","single-stim-button","87","112442","0.0-4.15-0.15","columbia-card-task-hot","false","0","19","463","463","0","test","4","16","1","10","250","160","false","rigged_win","","","",""
"1087","","pre_stim","single-stim-button","88","113530","0.0-4.16-0.16","columbia-card-task-hot","false","0","12","1087","1087","0","test","4","17","1","10","250","170","false","rigged_win","","","",""
"655","","pre_stim","single-stim-button","89","114187","0.0-4.17-0.17","columbia-card-task-hot","false","0","13","655","655","0","test","4","18","1","10","250","180","false","rigged_win","","","",""
"671","","pre_stim","single-stim-button","90","114859","0.0-4.18-0.18","columbia-card-task-hot","false","0","15","671","671","0","test","4","19","1","10","250","190","false","rigged_win","","","",""
"543","","pre_stim","single-stim-button","91","115403","0.0-4.19-0.19","columbia-card-task-hot","false","0","16","543","543","0","test","4","20","1","10","250","200","false","rigged_win","","","",""
"1343","","pre_stim","single-stim-button","92","116747","0.0-4.20-0.20","columbia-card-task-hot","false","0","14","1343","1343","0","test","4","21","1","10","250","210","false","rigged_win","","","",""
"1270","","pre_stim","single-stim-button","93","118019","0.0-4.21-0.21","columbia-card-task-hot","false","0","20","1270","1270","0","test","4","22","1","10","250","220","false","rigged_win","","","",""
"631","","pre_stim","single-stim-button","94","118651","0.0-4.22-0.22","columbia-card-task-hot","false","0","27","631","631","0","test","4","23","1","10","250","230","false","rigged_win","","","",""
"383","","pre_stim","single-stim-button","95","119035","0.0-4.23-0.23","columbia-card-task-hot","false","0","28","383","383","0","test","4","24","1","10","250","240","false","rigged_win","","","",""
"807","","pre_stim","single-stim-button","96","119843","0.0-4.24-0.24","columbia-card-task-hot","false","0","21","807","807","0","test","4","25","1","10","250","250","false","rigged_win","","","",""
"1399","","pre_stim","single-stim-button","97","121243","0.0-4.25-0.25","columbia-card-task-hot","false","0","32","1399","1399","0","test","4","26","1","10","250","260","false","rigged_win","","","",""
"815","","pre_stim","single-stim-button","98","122058","0.0-4.26-0.26","columbia-card-task-hot","false","0","31","815","815","0","test","4","27","1","10","250","270","false","rigged_win","","","",""
"591","","pre_stim","single-stim-button","99","122651","0.0-4.27-0.27","columbia-card-task-hot","false","0","24","591","591","0","test","4","28","1","10","250","280","false","rigged_win","","","",""
"934","","pre_stim","single-stim-button","100","123586","0.0-4.28-0.28","columbia-card-task-hot","false","0","turnButton","934","934","0","test","4","28","1","10","250","280","false","rigged_win","","","",""
"4175","","pre_stim","single-stim-button","101","127762","0.0-4.29-0.29","columbia-card-task-hot","false","0","collectButton","4175","4175","0","test","4","29","1","10","250","280","false","rigged_win","","","",""
"6647","","pre_stim","single-stim-button","102","134411","0.0-5.0-0.0","columbia-card-task-hot","false","0","1","6647","6647","0","test","5","1","3","10","750","10","false","rigged_win","","","",""
"942","","pre_stim","single-stim-button","103","135354","0.0-5.1-0.1","columbia-card-task-hot","false","0","2","942","942","0","test","5","2","3","10","750","20","false","rigged_win","","","",""
"1031","","pre_stim","single-stim-button","104","136387","0.0-5.2-0.2","columbia-card-task-hot","false","0","3","1031","1031","0","test","5","3","3","10","750","30","false","rigged_win","","","",""
"1142","","pre_stim","single-stim-button","105","137531","0.0-5.3-0.3","columbia-card-task-hot","false","0","4","1142","1142","0","test","5","4","3","10","750","40","false","rigged_win","","","",""
"1047","","pre_stim","single-stim-button","106","138578","0.0-5.4-0.4","columbia-card-task-hot","false","0","5","1047","1047","0","test","5","5","3","10","750","50","false","rigged_win","","","",""
"839","","pre_stim","single-stim-button","107","139419","0.0-5.5-0.5","columbia-card-task-hot","false","0","6","839","839","0","test","5","6","3","10","750","60","false","rigged_win","","","",""
"855","","pre_stim","single-stim-button","108","140275","0.0-5.6-0.6","columbia-card-task-hot","false","0","7","855","855","0","test","5","7","3","10","750","70","false","rigged_win","","","",""
"863","","pre_stim","single-stim-button","109","141138","0.0-5.7-0.7","columbia-card-task-hot","false","0","8","863","863","0","test","5","8","3","10","750","80","false","rigged_win","","","",""
"887","","pre_stim","single-stim-button","110","142026","0.0-5.8-0.8","columbia-card-task-hot","false","0","16","887","887","0","test","5","9","3","10","750","90","false","rigged_win","","","",""
"719","","pre_stim","single-stim-button","111","142746","0.0-5.9-0.9","columbia-card-task-hot","false","0","24","719","719","0","test","5","10","3","10","750","100","false","rigged_win","","","",""
"558","","pre_stim","single-stim-button","112","143306","0.0-5.10-0.10","columbia-card-task-hot","false","0","32","558","558","0","test","5","11","3","10","750","110","false","rigged_win","","","",""
"751","","pre_stim","single-stim-button","113","144058","0.0-5.11-0.11","columbia-card-task-hot","false","0","25","751","751","0","test","5","12","3","10","750","120","false","rigged_win","","","",""
"1143","","pre_stim","single-stim-button","114","145203","0.0-5.12-0.12","columbia-card-task-hot","false","0","17","1143","1143","0","test","5","13","3","10","750","130","false","rigged_win","","","",""
"903","","pre_stim","single-stim-button","115","146106","0.0-5.13-0.13","columbia-card-task-hot","false","0","9","903","903","0","test","5","14","3","10","750","140","false","rigged_win","","","",""
"959","","pre_stim","single-stim-button","116","147067","0.0-5.14-0.14","columbia-card-task-hot","false","0","26","959","959","0","test","5","15","3","10","750","150","false","rigged_win","","","",""
"543","","pre_stim","single-stim-button","117","147611","0.0-5.15-0.15","columbia-card-task-hot","false","0","27","543","543","0","test","5","16","3","10","750","160","false","rigged_win","","","",""
"519","","pre_stim","single-stim-button","118","148130","0.0-5.16-0.16","columbia-card-task-hot","false","0","28","519","519","0","test","5","17","3","10","750","170","false","rigged_win","","","",""
"1087","","pre_stim","single-stim-button","119","149219","0.0-5.17-0.17","columbia-card-task-hot","false","0","30","1087","1087","0","test","5","18","3","10","750","180","false","rigged_win","","","",""
"1119","","pre_stim","single-stim-button","120","150338","0.0-5.18-0.18","columbia-card-task-hot","false","0","31","1119","1119","0","test","5","19","3","10","750","190","false","rigged_win","","","",""
"815","","pre_stim","single-stim-button","121","151154","0.0-5.19-0.19","columbia-card-task-hot","false","0","29","815","815","0","test","5","20","3","10","750","200","false","rigged_win","","","",""
"1159","","pre_stim","single-stim-button","122","152314","0.0-5.20-0.20","columbia-card-task-hot","false","0","22","1159","1159","0","test","5","21","3","10","750","210","false","rigged_win","","","",""
"1158","","pre_stim","single-stim-button","123","153475","0.0-5.21-0.21","columbia-card-task-hot","false","0","15","1158","1158","0","test","5","22","3","10","750","220","false","rigged_win","","","",""
"823","","pre_stim","single-stim-button","124","154298","0.0-5.22-0.22","columbia-card-task-hot","false","0","13","823","823","0","test","5","23","3","10","750","230","false","rigged_win","","","",""
"1079","","pre_stim","single-stim-button","125","155379","0.0-5.23-0.23","columbia-card-task-hot","false","0","20","1079","1079","0","test","5","24","3","10","750","240","false","rigged_win","","","",""
"646","","pre_stim","single-stim-button","126","156026","0.0-5.24-0.24","columbia-card-task-hot","false","0","11","646","646","0","test","5","25","3","10","750","250","false","rigged_win","","","",""
"479","","pre_stim","single-stim-button","127","156507","0.0-5.25-0.25","columbia-card-task-hot","false","0","18","479","479","0","test","5","26","3","10","750","260","false","rigged_win","","","",""
"1383","","pre_stim","single-stim-button","128","157890","0.0-5.26-0.26","columbia-card-task-hot","false","0","turnButton","1383","1383","0","test","5","26","3","10","750","260","false","rigged_win","","","",""
"3535","","pre_stim","single-stim-button","129","161426","0.0-5.27-0.27","columbia-card-task-hot","false","0","collectButton","3535","3535","0","test","5","27","3","10","750","260","false","rigged_win","","","",""
"7015","","pre_stim","single-stim-button","130","168443","0.0-6.0-0.0","columbia-card-task-hot","false","0","1","7015","7015","0","test","6","1","1","30","750","30","false","rigged_win","","","",""
"798","","pre_stim","single-stim-button","131","169243","0.0-6.1-0.1","columbia-card-task-hot","false","0","25","798","798","0","test","6","2","1","30","750","60","false","rigged_win","","","",""
"799","","pre_stim","single-stim-button","132","170043","0.0-6.2-0.2","columbia-card-task-hot","false","0","32","799","799","0","test","6","3","1","30","750","90","false","rigged_win","","","",""
"854","","pre_stim","single-stim-button","133","170898","0.0-6.3-0.3","columbia-card-task-hot","false","0","8","854","854","0","test","6","4","1","30","750","120","false","rigged_win","","","",""
"1183","","pre_stim","single-stim-button","134","172082","0.0-6.4-0.4","columbia-card-task-hot","false","0","3","1183","1183","0","test","6","5","1","30","750","150","false","rigged_win","","","",""
"631","","pre_stim","single-stim-button","135","172714","0.0-6.5-0.5","columbia-card-task-hot","false","0","5","631","631","0","test","6","6","1","30","750","180","false","rigged_win","","","",""
"751","","pre_stim","single-stim-button","136","173466","0.0-6.6-0.6","columbia-card-task-hot","false","0","6","751","751","0","test","6","7","1","30","750","210","false","rigged_win","","","",""
"775","","pre_stim","single-stim-button","137","174243","0.0-6.7-0.7","columbia-card-task-hot","false","0","7","775","775","0","test","6","8","1","30","750","240","false","rigged_win","","","",""
"766","","pre_stim","single-stim-button","138","175011","0.0-6.8-0.8","columbia-card-task-hot","false","0","4","766","766","0","test","6","9","1","30","750","270","false","rigged_win","","","",""
"735","","pre_stim","single-stim-button","139","175746","0.0-6.9-0.9","columbia-card-task-hot","false","0","2","735","735","0","test","6","10","1","30","750","300","false","rigged_win","","","",""
"887","","pre_stim","single-stim-button","140","176634","0.0-6.10-0.10","columbia-card-task-hot","false","0","31","887","887","0","test","6","11","1","30","750","330","false","rigged_win","","","",""
"367","","pre_stim","single-stim-button","141","177003","0.0-6.11-0.11","columbia-card-task-hot","false","0","30","367","367","0","test","6","12","1","30","750","360","false","rigged_win","","","",""
"367","","pre_stim","single-stim-button","142","177370","0.0-6.12-0.12","columbia-card-task-hot","false","0","29","367","367","0","test","6","13","1","30","750","390","false","rigged_win","","","",""
"366","","pre_stim","single-stim-button","143","177737","0.0-6.13-0.13","columbia-card-task-hot","false","0","28","366","366","0","test","6","14","1","30","750","420","false","rigged_win","","","",""
"359","","pre_stim","single-stim-button","144","178098","0.0-6.14-0.14","columbia-card-task-hot","false","0","27","359","359","0","test","6","15","1","30","750","450","false","rigged_win","","","",""
"1910","","pre_stim","single-stim-button","145","180010","0.0-6.15-0.15","columbia-card-task-hot","false","0","26","1910","1910","0","test","6","16","1","30","750","480","false","rigged_win","","","",""
"1503","","pre_stim","single-stim-button","146","181514","0.0-6.16-0.16","columbia-card-task-hot","false","0","17","1503","1503","0","test","6","17","1","30","750","510","false","rigged_win","","","",""
"847","","pre_stim","single-stim-button","147","182362","0.0-6.17-0.17","columbia-card-task-hot","false","0","9","847","847","0","test","6","18","1","30","750","540","false","rigged_win","","","",""
"895","","pre_stim","single-stim-button","148","183258","0.0-6.18-0.18","columbia-card-task-hot","false","0","16","895","895","0","test","6","19","1","30","750","570","false","rigged_win","","","",""
"415","","pre_stim","single-stim-button","149","183674","0.0-6.19-0.19","columbia-card-task-hot","false","0","24","415","415","0","test","6","20","1","30","750","600","false","rigged_win","","","",""
"991","","pre_stim","single-stim-button","150","184666","0.0-6.20-0.20","columbia-card-task-hot","false","0","18","991","991","0","test","6","21","1","30","750","630","false","rigged_win","","","",""
"1399","","pre_stim","single-stim-button","151","186066","0.0-6.21-0.21","columbia-card-task-hot","false","0","11","1399","1399","0","test","6","22","1","30","750","660","false","rigged_win","","","",""
"1407","","pre_stim","single-stim-button","152","187474","0.0-6.22-0.22","columbia-card-task-hot","false","0","10","1407","1407","0","test","6","23","1","30","750","690","false","rigged_win","","","",""
"1407","","pre_stim","single-stim-button","153","188882","0.0-6.23-0.23","columbia-card-task-hot","false","0","13","1407","1407","0","test","6","24","1","30","750","720","false","rigged_win","","","",""
"559","","pre_stim","single-stim-button","154","189442","0.0-6.24-0.24","columbia-card-task-hot","false","0","15","559","559","0","test","6","25","1","30","750","750","false","rigged_win","","","",""
"903","","pre_stim","single-stim-button","155","190346","0.0-6.25-0.25","columbia-card-task-hot","false","0","22","903","903","0","test","6","26","1","30","750","780","false","rigged_win","","","",""
"751","","pre_stim","single-stim-button","156","191098","0.0-6.26-0.26","columbia-card-task-hot","false","0","20","751","751","0","test","6","27","1","30","750","810","false","rigged_win","","","",""
"2063","","pre_stim","single-stim-button","157","193162","0.0-6.27-0.27","columbia-card-task-hot","false","0","19","2063","2063","0","test","6","28","1","30","750","840","false","rigged_win","","","",""
"1863","","pre_stim","single-stim-button","158","195026","0.0-6.28-0.28","columbia-card-task-hot","false","0","14","1863","1863","0","test","6","29","1","30","750","870","false","rigged_win","","","",""
"2111","","pre_stim","single-stim-button","159","197138","0.0-6.29-0.29","columbia-card-task-hot","false","0","turnButton","2111","2111","0","test","6","29","1","30","750","870","false","rigged_win","","","",""
"2975","","pre_stim","single-stim-button","160","200114","0.0-6.30-0.30","columbia-card-task-hot","false","0","collectButton","2975","2975","0","test","6","30","1","30","750","870","false","rigged_win","","","",""
"6927","","pre_stim","single-stim-button","161","207043","0.0-7.0-0.0","columbia-card-task-hot","false","0","1","6927","6927","0","test","7","1","3","30","750","30","false","rigged_win","","","",""
"919","","pre_stim","single-stim-button","162","207962","0.0-7.1-0.1","columbia-card-task-hot","false","0","10","919","919","0","test","7","2","3","30","750","60","false","rigged_win","","","",""
"599","","pre_stim","single-stim-button","163","208562","0.0-7.2-0.2","columbia-card-task-hot","false","0","19","599","599","0","test","7","3","3","30","750","90","false","rigged_win","","","",""
"503","","pre_stim","single-stim-button","164","209066","0.0-7.3-0.3","columbia-card-task-hot","false","0","28","503","503","0","test","7","4","3","30","750","120","false","rigged_win","","","",""
"1623","","pre_stim","single-stim-button","165","210690","0.0-7.4-0.4","columbia-card-task-hot","false","0","26","1623","1623","0","test","7","5","3","30","750","150","false","rigged_win","","","",""
"687","","pre_stim","single-stim-button","166","211378","0.0-7.5-0.5","columbia-card-task-hot","false","0","12","687","687","0","test","7","6","3","30","750","180","false","rigged_win","","","",""
"895","","pre_stim","single-stim-button","167","212275","0.0-7.6-0.6","columbia-card-task-hot","false","0","5","895","895","0","test","7","7","3","30","750","210","false","rigged_win","","","",""
"926","","pre_stim","single-stim-button","168","213202","0.0-7.7-0.7","columbia-card-task-hot","false","0","3","926","926","0","test","7","8","3","30","750","240","false","rigged_win","","","",""
"1079","","pre_stim","single-stim-button","169","214283","0.0-7.8-0.8","columbia-card-task-hot","false","0","17","1079","1079","0","test","7","9","3","30","750","270","false","rigged_win","","","",""
"575","","pre_stim","single-stim-button","170","214858","0.0-7.9-0.9","columbia-card-task-hot","false","0","25","575","575","0","test","7","10","3","30","750","300","false","rigged_win","","","",""
"487","","pre_stim","single-stim-button","171","215346","0.0-7.10-0.10","columbia-card-task-hot","false","0","18","487","487","0","test","7","11","3","30","750","330","false","rigged_win","","","",""
"487","","pre_stim","single-stim-button","172","215834","0.0-7.11-0.11","columbia-card-task-hot","false","0","9","487","487","0","test","7","12","3","30","750","360","false","rigged_win","","","",""
"671","","pre_stim","single-stim-button","173","216506","0.0-7.12-0.12","columbia-card-task-hot","false","0","2","671","671","0","test","7","13","3","30","750","390","false","rigged_win","","","",""
"590","","pre_stim","single-stim-button","174","217098","0.0-7.13-0.13","columbia-card-task-hot","false","0","11","590","590","0","test","7","14","3","30","750","420","false","rigged_win","","","",""
"519","","pre_stim","single-stim-button","175","217618","0.0-7.14-0.14","columbia-card-task-hot","false","0","4","519","519","0","test","7","15","3","30","750","450","false","rigged_win","","","",""
"983","","pre_stim","single-stim-button","176","218602","0.0-7.15-0.15","columbia-card-task-hot","false","0","27","983","983","0","test","7","16","3","30","750","480","false","rigged_win","","","",""
"895","","pre_stim","single-stim-button","177","219499","0.0-7.16-0.16","columbia-card-task-hot","false","0","29","895","895","0","test","7","17","3","30","750","510","false","rigged_win","","","",""
"646","","pre_stim","single-stim-button","178","220146","0.0-7.17-0.17","columbia-card-task-hot","false","0","30","646","646","0","test","7","18","3","30","750","540","false","rigged_win","","","",""
"471","","pre_stim","single-stim-button","179","220618","0.0-7.18-0.18","columbia-card-task-hot","false","0","31","471","471","0","test","7","19","3","30","750","570","false","rigged_win","","","",""
"1151","","pre_stim","single-stim-button","180","221770","0.0-7.19-0.19","columbia-card-task-hot","false","0","32","1151","1151","0","test","7","20","3","30","750","600","false","rigged_win","","","",""
"1503","","pre_stim","single-stim-button","181","223274","0.0-7.20-0.20","columbia-card-task-hot","false","0","6","1503","1503","0","test","7","21","3","30","750","630","false","rigged_win","","","",""
"470","","pre_stim","single-stim-button","182","223746","0.0-7.21-0.21","columbia-card-task-hot","false","0","7","470","470","0","test","7","22","3","30","750","660","false","rigged_win","","","",""
"743","","pre_stim","single-stim-button","183","224490","0.0-7.22-0.22","columbia-card-task-hot","false","0","8","743","743","0","test","7","23","3","30","750","690","false","rigged_win","","","",""
"1214","","pre_stim","single-stim-button","184","225706","0.0-7.23-0.23","columbia-card-task-hot","false","0","20","1214","1214","0","test","7","24","3","30","750","720","false","rigged_win","","","",""
"1271","","pre_stim","single-stim-button","185","226979","0.0-7.24-0.24","columbia-card-task-hot","false","0","14","1271","1271","0","test","7","25","3","30","750","750","false","rigged_win","","","",""
"422","","pre_stim","single-stim-button","186","227402","0.0-7.25-0.25","columbia-card-task-hot","false","0","23","422","422","0","test","7","26","3","30","750","780","false","rigged_win","","","",""
"687","","pre_stim","single-stim-button","187","228091","0.0-7.26-0.26","columbia-card-task-hot","false","0","16","687","687","0","test","7","27","3","30","750","810","false","rigged_win","","","",""
"806","","pre_stim","single-stim-button","188","228898","0.0-7.27-0.27","columbia-card-task-hot","false","0","21","806","806","0","test","7","28","3","30","750","840","false","rigged_win","","","",""
"1495","","pre_stim","single-stim-button","189","230394","0.0-7.28-0.28","columbia-card-task-hot","false","0","turnButton","1495","1495","0","test","7","28","3","30","750","840","false","rigged_win","","","",""
"3535","","pre_stim","single-stim-button","190","233930","0.0-7.29-0.29","columbia-card-task-hot","false","0","collectButton","3535","3535","0","test","7","29","3","30","750","840","false","rigged_win","","","",""
"6758","","pre_stim","single-stim-button","191","240690","0.0-8.0-0.0","columbia-card-task-hot","false","0","1","6758","6758","0","test","8","1","3","30","250","30","false","rigged_loss","","","",""
"950","","pre_stim","single-stim-button","192","241641","0.0-8.1-0.1","columbia-card-task-hot","false","0","8","950","950","0","test","8","2","3","30","250","60","false","rigged_loss","","","",""
"743","","pre_stim","single-stim-button","193","242385","0.0-8.2-0.2","columbia-card-task-hot","false","0","32","743","743","0","test","8","3","3","30","250","90","false","rigged_loss","","","",""
"830","","pre_stim","single-stim-button","194","243217","0.0-8.3-0.3","columbia-card-task-hot","false","0","25","830","830","0","test","8","4","3","30","250","120","false","rigged_loss","","","",""
"1039","","pre_stim","single-stim-button","195","244257","0.0-8.4-0.4","columbia-card-task-hot","false","0","9","1039","1039","0","test","8","5","3","30","250","150","false","rigged_loss","","","",""
"735","","pre_stim","single-stim-button","196","244993","0.0-8.5-0.5","columbia-card-task-hot","false","0","17","735","735","0","test","8","6","3","30","250","180","false","rigged_loss","","","",""
"687","","pre_stim","single-stim-button","197","245681","0.0-8.6-0.6","columbia-card-task-hot","false","0","16","687","687","0","test","8","7","3","30","250","210","false","rigged_loss","","","",""
"343","","pre_stim","single-stim-button","198","246025","0.0-8.7-0.7","columbia-card-task-hot","false","0","24","343","343","0","test","8","8","3","30","250","-40","true","rigged_loss","","","",""
"2799","","pre_stim","single-stim-button","199","248825","0.0-8.8-0.8","columbia-card-task-hot","false","0","collectButton","2799","2799","0","test","8","9","3","30","250","-40","true","rigged_loss","","","",""
"6575","","pre_stim","single-stim-button","200","255402","0.0-9.0-0.0","columbia-card-task-hot","false","0","1","6575","6575","0","test","9","1","3","30","250","30","false","rigged_win","","","",""
"1766","","pre_stim","single-stim-button","201","257169","0.0-9.1-0.1","columbia-card-task-hot","false","0","2","1766","1766","0","test","9","2","3","30","250","60","false","rigged_win","","","",""
"639","","pre_stim","single-stim-button","202","257809","0.0-9.2-0.2","columbia-card-task-hot","false","0","3","639","639","0","test","9","3","3","30","250","90","false","rigged_win","","","",""
"711","","pre_stim","single-stim-button","203","258522","0.0-9.3-0.3","columbia-card-task-hot","false","0","4","711","711","0","test","9","4","3","30","250","120","false","rigged_win","","","",""
"734","","pre_stim","single-stim-button","204","259257","0.0-9.4-0.4","columbia-card-task-hot","false","0","5","734","734","0","test","9","5","3","30","250","150","false","rigged_win","","","",""
"1335","","pre_stim","single-stim-button","205","260593","0.0-9.5-0.5","columbia-card-task-hot","false","0","8","1335","1335","0","test","9","6","3","30","250","180","false","rigged_win","","","",""
"390","","pre_stim","single-stim-button","206","260985","0.0-9.6-0.6","columbia-card-task-hot","false","0","7","390","390","0","test","9","7","3","30","250","210","false","rigged_win","","","",""
"438","","pre_stim","single-stim-button","207","261425","0.0-9.7-0.7","columbia-card-task-hot","false","0","6","438","438","0","test","9","8","3","30","250","240","false","rigged_win","","","",""
"639","","pre_stim","single-stim-button","208","262066","0.0-9.8-0.8","columbia-card-task-hot","false","0","16","639","639","0","test","9","9","3","30","250","270","false","rigged_win","","","",""
"550","","pre_stim","single-stim-button","209","262617","0.0-9.9-0.9","columbia-card-task-hot","false","0","24","550","550","0","test","9","10","3","30","250","300","false","rigged_win","","","",""
"895","","pre_stim","single-stim-button","210","263513","0.0-9.10-0.10","columbia-card-task-hot","false","0","32","895","895","0","test","9","11","3","30","250","330","false","rigged_win","","","",""
"1039","","pre_stim","single-stim-button","211","264553","0.0-9.11-0.11","columbia-card-task-hot","false","0","31","1039","1039","0","test","9","12","3","30","250","360","false","rigged_win","","","",""
"1341","","pre_stim","single-stim-button","212","265897","0.0-9.12-0.12","columbia-card-task-hot","false","0","25","1341","1341","0","test","9","13","3","30","250","390","false","rigged_win","","","",""
"838","","pre_stim","single-stim-button","213","266737","0.0-9.13-0.13","columbia-card-task-hot","false","0","17","838","838","0","test","9","14","3","30","250","420","false","rigged_win","","","",""
"575","","pre_stim","single-stim-button","214","267313","0.0-9.14-0.14","columbia-card-task-hot","false","0","26","575","575","0","test","9","15","3","30","250","450","false","rigged_win","","","",""
"1023","","pre_stim","single-stim-button","215","268337","0.0-9.15-0.15","columbia-card-task-hot","false","0","9","1023","1023","0","test","9","16","3","30","250","480","false","rigged_win","","","",""
"727","","pre_stim","single-stim-button","216","269065","0.0-9.16-0.16","columbia-card-task-hot","false","0","27","727","727","0","test","9","17","3","30","250","510","false","rigged_win","","","",""
"655","","pre_stim","single-stim-button","217","269722","0.0-9.17-0.17","columbia-card-task-hot","false","0","28","655","655","0","test","9","18","3","30","250","540","false","rigged_win","","","",""
"470","","pre_stim","single-stim-button","218","270193","0.0-9.18-0.18","columbia-card-task-hot","false","0","29","470","470","0","test","9","19","3","30","250","570","false","rigged_win","","","",""
"575","","pre_stim","single-stim-button","219","270769","0.0-9.19-0.19","columbia-card-task-hot","false","0","30","575","575","0","test","9","20","3","30","250","600","false","rigged_win","","","",""
"2423","","pre_stim","single-stim-button","220","273194","0.0-9.20-0.20","columbia-card-task-hot","false","0","18","2423","2423","0","test","9","21","3","30","250","630","false","rigged_win","","","",""
"1102","","pre_stim","single-stim-button","221","274297","0.0-9.21-0.21","columbia-card-task-hot","false","0","10","1102","1102","0","test","9","22","3","30","250","660","false","rigged_win","","","",""
"1391","","pre_stim","single-stim-button","222","275689","0.0-9.22-0.22","columbia-card-task-hot","false","0","15","1391","1391","0","test","9","23","3","30","250","690","false","rigged_win","","","",""
"486","","pre_stim","single-stim-button","223","276177","0.0-9.23-0.23","columbia-card-task-hot","false","0","23","486","486","0","test","9","24","3","30","250","720","false","rigged_win","","","",""
"3710","","pre_stim","single-stim-button","224","279890","0.0-9.24-0.24","columbia-card-task-hot","false","0","22","3710","3710","0","test","9","25","3","30","250","750","false","rigged_win","","","",""
"1358","","pre_stim","single-stim-button","225","281249","0.0-9.25-0.25","columbia-card-task-hot","false","0","13","1358","1358","0","test","9","26","3","30","250","780","false","rigged_win","","","",""
"1214","","pre_stim","single-stim-button","226","282466","0.0-9.26-0.26","columbia-card-task-hot","false","0","14","1214","1214","0","test","9","27","3","30","250","810","false","rigged_win","","","",""
"910","","pre_stim","single-stim-button","227","283377","0.0-9.27-0.27","columbia-card-task-hot","false","0","21","910","910","0","test","9","28","3","30","250","840","false","rigged_win","","","",""
"2205","","pre_stim","single-stim-button","228","285585","0.0-9.28-0.28","columbia-card-task-hot","false","0","12","2205","2205","0","test","9","29","3","30","250","870","false","rigged_win","","","",""
"2990","","pre_stim","single-stim-button","229","288577","0.0-9.29-0.29","columbia-card-task-hot","false","0","turnButton","2990","2990","0","test","9","29","3","30","250","870","false","rigged_win","","","",""
"4575","","pre_stim","single-stim-button","230","293153","0.0-9.30-0.30","columbia-card-task-hot","false","0","collectButton","4575","4575","0","test","9","30","3","30","250","870","false","rigged_win","","","",""
"6542","","pre_stim","single-stim-button","231","299698","0.0-10.0-0.0","columbia-card-task-hot","false","0","1","6542","6542","0","test","10","1","3","10","250","10","false","rigged_win","","","",""
"878","","pre_stim","single-stim-button","232","300577","0.0-10.1-0.1","columbia-card-task-hot","false","0","2","878","878","0","test","10","2","3","10","250","20","false","rigged_win","","","",""
"661","","pre_stim","single-stim-button","233","301241","0.0-10.2-0.2","columbia-card-task-hot","false","0","3","661","661","0","test","10","3","3","10","250","30","false","rigged_win","","","",""
"718","","pre_stim","single-stim-button","234","301961","0.0-10.3-0.3","columbia-card-task-hot","false","0","4","718","718","0","test","10","4","3","10","250","40","false","rigged_win","","","",""
"734","","pre_stim","single-stim-button","235","302696","0.0-10.4-0.4","columbia-card-task-hot","false","0","5","734","734","0","test","10","5","3","10","250","50","false","rigged_win","","","",""
"1438","","pre_stim","single-stim-button","236","304136","0.0-10.5-0.5","columbia-card-task-hot","false","0","9","1438","1438","0","test","10","6","3","10","250","60","false","rigged_win","","","",""
"510","","pre_stim","single-stim-button","237","304649","0.0-10.6-0.6","columbia-card-task-hot","false","0","17","510","510","0","test","10","7","3","10","250","70","false","rigged_win","","","",""
"694","","pre_stim","single-stim-button","238","305344","0.0-10.7-0.7","columbia-card-task-hot","false","0","6","694","694","0","test","10","8","3","10","250","80","false","rigged_win","","","",""
"606","","pre_stim","single-stim-button","239","305952","0.0-10.8-0.8","columbia-card-task-hot","false","0","7","606","606","0","test","10","9","3","10","250","90","false","rigged_win","","","",""
"550","","pre_stim","single-stim-button","240","306504","0.0-10.9-0.9","columbia-card-task-hot","false","0","8","550","550","0","test","10","10","3","10","250","100","false","rigged_win","","","",""
"870","","pre_stim","single-stim-button","241","307376","0.0-10.10-0.10","columbia-card-task-hot","false","0","25","870","870","0","test","10","11","3","10","250","110","false","rigged_win","","","",""
"902","","pre_stim","single-stim-button","242","308281","0.0-10.11-0.11","columbia-card-task-hot","false","0","32","902","902","0","test","10","12","3","10","250","120","false","rigged_win","","","",""
"494","","pre_stim","single-stim-button","243","308777","0.0-10.12-0.12","columbia-card-task-hot","false","0","31","494","494","0","test","10","13","3","10","250","130","false","rigged_win","","","",""
"623","","pre_stim","single-stim-button","244","309401","0.0-10.13-0.13","columbia-card-task-hot","false","0","30","623","623","0","test","10","14","3","10","250","140","false","rigged_win","","","",""
"766","","pre_stim","single-stim-button","245","310170","0.0-10.14-0.14","columbia-card-task-hot","false","0","29","766","766","0","test","10","15","3","10","250","150","false","rigged_win","","","",""
"534","","pre_stim","single-stim-button","246","310705","0.0-10.15-0.15","columbia-card-task-hot","false","0","28","534","534","0","test","10","16","3","10","250","160","false","rigged_win","","","",""
"998","","pre_stim","single-stim-button","247","311705","0.0-10.16-0.16","columbia-card-task-hot","false","0","27","998","998","0","test","10","17","3","10","250","170","false","rigged_win","","","",""
"863","","pre_stim","single-stim-button","248","312569","0.0-10.17-0.17","columbia-card-task-hot","false","0","24","863","863","0","test","10","18","3","10","250","180","false","rigged_win","","","",""
"726","","pre_stim","single-stim-button","249","313297","0.0-10.18-0.18","columbia-card-task-hot","false","0","16","726","726","0","test","10","19","3","10","250","190","false","rigged_win","","","",""
"662","","pre_stim","single-stim-button","250","313961","0.0-10.19-0.19","columbia-card-task-hot","false","0","26","662","662","0","test","10","20","3","10","250","200","false","rigged_win","","","",""
"855","","pre_stim","single-stim-button","251","314817","0.0-10.20-0.20","columbia-card-task-hot","false","0","18","855","855","0","test","10","21","3","10","250","210","false","rigged_win","","","",""
"671","","pre_stim","single-stim-button","252","315489","0.0-10.21-0.21","columbia-card-task-hot","false","0","11","671","671","0","test","10","22","3","10","250","220","false","rigged_win","","","",""
"654","","pre_stim","single-stim-button","253","316145","0.0-10.22-0.22","columbia-card-task-hot","false","0","10","654","654","0","test","10","23","3","10","250","230","false","rigged_win","","","",""
"638","","pre_stim","single-stim-button","254","316785","0.0-10.23-0.23","columbia-card-task-hot","false","0","19","638","638","0","test","10","24","3","10","250","240","false","rigged_win","","","",""
"653","","pre_stim","single-stim-button","255","317441","0.0-10.24-0.24","columbia-card-task-hot","false","0","13","653","653","0","test","10","25","3","10","250","250","false","rigged_win","","","",""
"895","","pre_stim","single-stim-button","256","318337","0.0-10.25-0.25","columbia-card-task-hot","false","0","22","895","895","0","test","10","26","3","10","250","260","false","rigged_win","","","",""
"894","","pre_stim","single-stim-button","257","319233","0.0-10.26-0.26","columbia-card-task-hot","false","0","15","894","894","0","test","10","27","3","10","250","270","false","rigged_win","","","",""
"1070","","pre_stim","single-stim-button","258","320305","0.0-10.27-0.27","columbia-card-task-hot","false","0","20","1070","1070","0","test","10","28","3","10","250","280","false","rigged_win","","","",""
"3430","","pre_stim","single-stim-button","259","323737","0.0-10.28-0.28","columbia-card-task-hot","false","0","12","3430","3430","0","test","10","29","3","10","250","290","false","rigged_win","","","",""
"1135","","pre_stim","single-stim-button","260","324873","0.0-10.29-0.29","columbia-card-task-hot","false","0","turnButton","1135","1135","0","test","10","29","3","10","250","290","false","rigged_win","","","",""
"2575","","pre_stim","single-stim-button","261","327449","0.0-10.30-0.30","columbia-card-task-hot","false","0","collectButton","2575","2575","0","test","10","30","3","10","250","290","false","rigged_win","","","",""
"6431","","pre_stim","single-stim-button","262","333881","0.0-11.0-0.0","columbia-card-task-hot","false","0","1","6431","6431","0","test","11","1","1","30","250","30","false","rigged_win","","","",""
"959","","pre_stim","single-stim-button","263","334841","0.0-11.1-0.1","columbia-card-task-hot","false","0","2","959","959","0","test","11","2","1","30","250","60","false","rigged_win","","","",""
"829","","pre_stim","single-stim-button","264","335673","0.0-11.2-0.2","columbia-card-task-hot","false","0","3","829","829","0","test","11","3","1","30","250","90","false","rigged_win","","","",""
"711","","pre_stim","single-stim-button","265","336386","0.0-11.3-0.3","columbia-card-task-hot","false","0","4","711","711","0","test","11","4","1","30","250","120","false","rigged_win","","","",""
"509","","pre_stim","single-stim-button","266","336897","0.0-11.4-0.4","columbia-card-task-hot","false","0","5","509","509","0","test","11","5","1","30","250","150","false","rigged_win","","","",""
"558","","pre_stim","single-stim-button","267","337457","0.0-11.5-0.5","columbia-card-task-hot","false","0","6","558","558","0","test","11","6","1","30","250","180","false","rigged_win","","","",""
"599","","pre_stim","single-stim-button","268","338057","0.0-11.6-0.6","columbia-card-task-hot","false","0","7","599","599","0","test","11","7","1","30","250","210","false","rigged_win","","","",""
"518","","pre_stim","single-stim-button","269","338577","0.0-11.7-0.7","columbia-card-task-hot","false","0","8","518","518","0","test","11","8","1","30","250","240","false","rigged_win","","","",""
"719","","pre_stim","single-stim-button","270","339297","0.0-11.8-0.8","columbia-card-task-hot","false","0","9","719","719","0","test","11","9","1","30","250","270","false","rigged_win","","","",""
"741","","pre_stim","single-stim-button","271","340041","0.0-11.9-0.9","columbia-card-task-hot","false","0","17","741","741","0","test","11","10","1","30","250","300","false","rigged_win","","","",""
"751","","pre_stim","single-stim-button","272","340793","0.0-11.10-0.10","columbia-card-task-hot","false","0","25","751","751","0","test","11","11","1","30","250","330","false","rigged_win","","","",""
"727","","pre_stim","single-stim-button","273","341521","0.0-11.11-0.11","columbia-card-task-hot","false","0","26","727","727","0","test","11","12","1","30","250","360","false","rigged_win","","","",""
"438","","pre_stim","single-stim-button","274","341961","0.0-11.12-0.12","columbia-card-task-hot","false","0","27","438","438","0","test","11","13","1","30","250","390","false","rigged_win","","","",""
"1398","","pre_stim","single-stim-button","275","343361","0.0-11.13-0.13","columbia-card-task-hot","false","0","28","1398","1398","0","test","11","14","1","30","250","420","false","rigged_win","","","",""
"446","","pre_stim","single-stim-button","276","343809","0.0-11.14-0.14","columbia-card-task-hot","false","0","29","446","446","0","test","11","15","1","30","250","450","false","rigged_win","","","",""
"887","","pre_stim","single-stim-button","277","344697","0.0-11.15-0.15","columbia-card-task-hot","false","0","30","887","887","0","test","11","16","1","30","250","480","false","rigged_win","","","",""
"501","","pre_stim","single-stim-button","278","345201","0.0-11.16-0.16","columbia-card-task-hot","false","0","31","501","501","0","test","11","17","1","30","250","510","false","rigged_win","","","",""
"831","","pre_stim","single-stim-button","279","346033","0.0-11.17-0.17","columbia-card-task-hot","false","0","32","831","831","0","test","11","18","1","30","250","540","false","rigged_win","","","",""
"621","","pre_stim","single-stim-button","280","346657","0.0-11.18-0.18","columbia-card-task-hot","false","0","16","621","621","0","test","11","19","1","30","250","570","false","rigged_win","","","",""
"598","","pre_stim","single-stim-button","281","347257","0.0-11.19-0.19","columbia-card-task-hot","false","0","24","598","598","0","test","11","20","1","30","250","600","false","rigged_win","","","",""
"1015","","pre_stim","single-stim-button","282","348273","0.0-11.20-0.20","columbia-card-task-hot","false","0","10","1015","1015","0","test","11","21","1","30","250","630","false","rigged_win","","","",""
"853","","pre_stim","single-stim-button","283","349129","0.0-11.21-0.21","columbia-card-task-hot","false","0","18","853","853","0","test","11","22","1","30","250","660","false","rigged_win","","","",""
"798","","pre_stim","single-stim-button","284","349929","0.0-11.22-0.22","columbia-card-task-hot","false","0","11","798","798","0","test","11","23","1","30","250","690","false","rigged_win","","","",""
"510","","pre_stim","single-stim-button","285","350441","0.0-11.23-0.23","columbia-card-task-hot","false","0","19","510","510","0","test","11","24","1","30","250","720","false","rigged_win","","","",""
"814","","pre_stim","single-stim-button","286","351257","0.0-11.24-0.24","columbia-card-task-hot","false","0","12","814","814","0","test","11","25","1","30","250","750","false","rigged_win","","","",""
"550","","pre_stim","single-stim-button","287","351809","0.0-11.25-0.25","columbia-card-task-hot","false","0","20","550","550","0","test","11","26","1","30","250","780","false","rigged_win","","","",""
"1030","","pre_stim","single-stim-button","288","352841","0.0-11.26-0.26","columbia-card-task-hot","false","0","15","1030","1030","0","test","11","27","1","30","250","810","false","rigged_win","","","",""
"895","","pre_stim","single-stim-button","289","353737","0.0-11.27-0.27","columbia-card-task-hot","false","0","21","895","895","0","test","11","28","1","30","250","840","false","rigged_win","","","",""
"966","","pre_stim","single-stim-button","290","354705","0.0-11.28-0.28","columbia-card-task-hot","false","0","13","966","966","0","test","11","29","1","30","250","870","false","rigged_win","","","",""
"2438","","pre_stim","single-stim-button","291","357145","0.0-11.29-0.29","columbia-card-task-hot","false","0","14","2438","2438","0","test","11","30","1","30","250","900","false","rigged_win","","","",""
"1254","","pre_stim","single-stim-button","292","358401","0.0-11.30-0.30","columbia-card-task-hot","false","0","22","1254","1254","0","test","11","31","1","30","250","930","false","rigged_win","","","",""
"2182","","pre_stim","single-stim-button","293","360585","0.0-11.31-0.31","columbia-card-task-hot","false","0","turnButton","2182","2182","0","test","11","31","1","30","250","930","false","rigged_win","","","",""
"2830","","pre_stim","single-stim-button","294","363416","0.0-11.32-0.32","columbia-card-task-hot","false","0","collectButton","2830","2830","0","test","11","32","1","30","250","930","false","rigged_win","","","",""
"6727","","pre_stim","single-stim-button","295","370144","0.0-12.0-0.0","columbia-card-task-hot","false","0","25","6727","6727","0","test","12","1","3","30","250","30","false","rigged_loss","","","",""
"1374","","pre_stim","single-stim-button","296","371520","0.0-12.1-0.1","columbia-card-task-hot","false","0","32","1374","1374","0","test","12","2","3","30","250","60","false","rigged_loss","","","",""
"814","","pre_stim","single-stim-button","297","372337","0.0-12.2-0.2","columbia-card-task-hot","false","0","8","814","814","0","test","12","3","3","30","250","90","false","rigged_loss","","","",""
"862","","pre_stim","single-stim-button","298","373200","0.0-12.3-0.3","columbia-card-task-hot","false","0","1","862","862","0","test","12","4","3","30","250","-160","true","rigged_loss","","","",""
"4326","","pre_stim","single-stim-button","299","377528","0.0-12.4-0.4","columbia-card-task-hot","false","0","collectButton","4326","4326","0","test","12","5","3","30","250","-160","true","rigged_loss","","","",""
"6711","","pre_stim","single-stim-button","300","384241","0.0-13.0-0.0","columbia-card-task-hot","false","0","1","6711","6711","0","test","13","1","1","10","750","10","false","rigged_win","","","",""
"958","","pre_stim","single-stim-button","301","385201","0.0-13.1-0.1","columbia-card-task-hot","false","0","2","958","958","0","test","13","2","1","10","750","20","false","rigged_win","","","",""
"741","","pre_stim","single-stim-button","302","385945","0.0-13.2-0.2","columbia-card-task-hot","false","0","3","741","741","0","test","13","3","1","10","750","30","false","rigged_win","","","",""
"854","","pre_stim","single-stim-button","303","386801","0.0-13.3-0.3","columbia-card-task-hot","false","0","4","854","854","0","test","13","4","1","10","750","40","false","rigged_win","","","",""
"877","","pre_stim","single-stim-button","304","387681","0.0-13.4-0.4","columbia-card-task-hot","false","0","5","877","877","0","test","13","5","1","10","750","50","false","rigged_win","","","",""
"829","","pre_stim","single-stim-button","305","388513","0.0-13.5-0.5","columbia-card-task-hot","false","0","6","829","829","0","test","13","6","1","10","750","60","false","rigged_win","","","",""
"606","","pre_stim","single-stim-button","306","389120","0.0-13.6-0.6","columbia-card-task-hot","false","0","7","606","606","0","test","13","7","1","10","750","70","false","rigged_win","","","",""
"614","","pre_stim","single-stim-button","307","389736","0.0-13.7-0.7","columbia-card-task-hot","false","0","8","614","614","0","test","13","8","1","10","750","80","false","rigged_win","","","",""
"1086","","pre_stim","single-stim-button","308","390824","0.0-13.8-0.8","columbia-card-task-hot","false","0","9","1086","1086","0","test","13","9","1","10","750","90","false","rigged_win","","","",""
"710","","pre_stim","single-stim-button","309","391536","0.0-13.9-0.9","columbia-card-task-hot","false","0","17","710","710","0","test","13","10","1","10","750","100","false","rigged_win","","","",""
"637","","pre_stim","single-stim-button","310","392176","0.0-13.10-0.10","columbia-card-task-hot","false","0","25","637","637","0","test","13","11","1","10","750","110","false","rigged_win","","","",""
"1046","","pre_stim","single-stim-button","311","393224","0.0-13.11-0.11","columbia-card-task-hot","false","0","32","1046","1046","0","test","13","12","1","10","750","120","false","rigged_win","","","",""
"526","","pre_stim","single-stim-button","312","393753","0.0-13.12-0.12","columbia-card-task-hot","false","0","24","526","526","0","test","13","13","1","10","750","130","false","rigged_win","","","",""
"502","","pre_stim","single-stim-button","313","394256","0.0-13.13-0.13","columbia-card-task-hot","false","0","16","502","502","0","test","13","14","1","10","750","140","false","rigged_win","","","",""
"766","","pre_stim","single-stim-button","314","395024","0.0-13.14-0.14","columbia-card-task-hot","false","0","31","766","766","0","test","13","15","1","10","750","150","false","rigged_win","","","",""
"670","","pre_stim","single-stim-button","315","395697","0.0-13.15-0.15","columbia-card-task-hot","false","0","30","670","670","0","test","13","16","1","10","750","160","false","rigged_win","","","",""
"550","","pre_stim","single-stim-button","316","396249","0.0-13.16-0.16","columbia-card-task-hot","false","0","29","550","550","0","test","13","17","1","10","750","170","false","rigged_win","","","",""
"614","","pre_stim","single-stim-button","317","396864","0.0-13.17-0.17","columbia-card-task-hot","false","0","28","614","614","0","test","13","18","1","10","750","180","false","rigged_win","","","",""
"518","","pre_stim","single-stim-button","318","397385","0.0-13.18-0.18","columbia-card-task-hot","false","0","27","518","518","0","test","13","19","1","10","750","190","false","rigged_win","","","",""
"398","","pre_stim","single-stim-button","319","397784","0.0-13.19-0.19","columbia-card-task-hot","false","0","26","398","398","0","test","13","20","1","10","750","200","false","rigged_win","","","",""
"838","","pre_stim","single-stim-button","320","398624","0.0-13.20-0.20","columbia-card-task-hot","false","0","18","838","838","0","test","13","21","1","10","750","210","false","rigged_win","","","",""
"750","","pre_stim","single-stim-button","321","399376","0.0-13.21-0.21","columbia-card-task-hot","false","0","10","750","750","0","test","13","22","1","10","750","220","false","rigged_win","","","",""
"895","","pre_stim","single-stim-button","322","400273","0.0-13.22-0.22","columbia-card-task-hot","false","0","15","895","895","0","test","13","23","1","10","750","230","false","rigged_win","","","",""
"758","","pre_stim","single-stim-button","323","401033","0.0-13.23-0.23","columbia-card-task-hot","false","0","23","758","758","0","test","13","24","1","10","750","240","false","rigged_win","","","",""
"1230","","pre_stim","single-stim-button","324","402264","0.0-13.24-0.24","columbia-card-task-hot","false","0","14","1230","1230","0","test","13","25","1","10","750","250","false","rigged_win","","","",""
"597","","pre_stim","single-stim-button","325","402864","0.0-13.25-0.25","columbia-card-task-hot","false","0","22","597","597","0","test","13","26","1","10","750","260","false","rigged_win","","","",""
"943","","pre_stim","single-stim-button","326","403809","0.0-13.26-0.26","columbia-card-task-hot","false","0","11","943","943","0","test","13","27","1","10","750","270","false","rigged_win","","","",""
"974","","pre_stim","single-stim-button","327","404785","0.0-13.27-0.27","columbia-card-task-hot","false","0","19","974","974","0","test","13","28","1","10","750","280","false","rigged_win","","","",""
"1110","","pre_stim","single-stim-button","328","405896","0.0-13.28-0.28","columbia-card-task-hot","false","0","12","1110","1110","0","test","13","29","1","10","750","290","false","rigged_win","","","",""
"822","","pre_stim","single-stim-button","329","406721","0.0-13.29-0.29","columbia-card-task-hot","false","0","21","822","822","0","test","13","30","1","10","750","300","false","rigged_win","","","",""
"1246","","pre_stim","single-stim-button","330","407968","0.0-13.30-0.30","columbia-card-task-hot","false","0","20","1246","1246","0","test","13","31","1","10","750","310","false","rigged_win","","","",""
"1454","","pre_stim","single-stim-button","331","409424","0.0-13.31-0.31","columbia-card-task-hot","false","0","turnButton","1454","1454","0","test","13","31","1","10","750","310","false","rigged_win","","","",""
"2894","","pre_stim","single-stim-button","332","412320","0.0-13.32-0.32","columbia-card-task-hot","false","0","collectButton","2894","2894","0","test","13","32","1","10","750","310","false","rigged_win","","","",""
"6766","","pre_stim","single-stim-button","333","419089","0.0-14.0-0.0","columbia-card-task-hot","false","0","29","6766","6766","0","test","14","1","1","30","750","30","false","rigged_loss","","","",""
"478","","pre_stim","single-stim-button","334","419569","0.0-14.1-0.1","columbia-card-task-hot","false","0","30","478","478","0","test","14","2","1","30","750","60","false","rigged_loss","","","",""
"550","","pre_stim","single-stim-button","335","420121","0.0-14.2-0.2","columbia-card-task-hot","false","0","22","550","550","0","test","14","3","1","30","750","-690","true","rigged_loss","","","",""
"3102","","pre_stim","single-stim-button","336","423225","0.0-14.3-0.3","columbia-card-task-hot","false","0","collectButton","3102","3102","0","test","14","4","1","30","750","-690","true","rigged_loss","","","",""
"6694","","pre_stim","single-stim-button","337","429921","0.0-15.0-0.0","columbia-card-task-hot","false","0","8","6694","6694","0","test","15","1","3","10","250","10","false","rigged_win","","","",""
"1109","","pre_stim","single-stim-button","338","431033","0.0-15.1-0.1","columbia-card-task-hot","false","0","32","1109","1109","0","test","15","2","3","10","250","20","false","rigged_win","","","",""
"1278","","pre_stim","single-stim-button","339","432313","0.0-15.2-0.2","columbia-card-task-hot","false","0","1","1278","1278","0","test","15","3","3","10","250","30","false","rigged_win","","","",""
"1045","","pre_stim","single-stim-button","340","433361","0.0-15.3-0.3","columbia-card-task-hot","false","0","25","1045","1045","0","test","15","4","3","10","250","40","false","rigged_win","","","",""
"861","","pre_stim","single-stim-button","341","434224","0.0-15.4-0.4","columbia-card-task-hot","false","0","17","861","861","0","test","15","5","3","10","250","50","false","rigged_win","","","",""
"566","","pre_stim","single-stim-button","342","434793","0.0-15.5-0.5","columbia-card-task-hot","false","0","9","566","566","0","test","15","6","3","10","250","60","false","rigged_win","","","",""
"702","","pre_stim","single-stim-button","343","435496","0.0-15.6-0.6","columbia-card-task-hot","false","0","2","702","702","0","test","15","7","3","10","250","70","false","rigged_win","","","",""
"630","","pre_stim","single-stim-button","344","436129","0.0-15.7-0.7","columbia-card-task-hot","false","0","3","630","630","0","test","15","8","3","10","250","80","false","rigged_win","","","",""
"742","","pre_stim","single-stim-button","345","436873","0.0-15.8-0.8","columbia-card-task-hot","false","0","4","742","742","0","test","15","9","3","10","250","90","false","rigged_win","","","",""
"517","","pre_stim","single-stim-button","346","437393","0.0-15.9-0.9","columbia-card-task-hot","false","0","5","517","517","0","test","15","10","3","10","250","100","false","rigged_win","","","",""
"789","","pre_stim","single-stim-button","347","438185","0.0-15.10-0.10","columbia-card-task-hot","false","0","6","789","789","0","test","15","11","3","10","250","110","false","rigged_win","","","",""
"766","","pre_stim","single-stim-button","348","438953","0.0-15.11-0.11","columbia-card-task-hot","false","0","7","766","766","0","test","15","12","3","10","250","120","false","rigged_win","","","",""
"606","","pre_stim","single-stim-button","349","439561","0.0-15.12-0.12","columbia-card-task-hot","false","0","16","606","606","0","test","15","13","3","10","250","130","false","rigged_win","","","",""
"910","","pre_stim","single-stim-button","350","440473","0.0-15.13-0.13","columbia-card-task-hot","false","0","24","910","910","0","test","15","14","3","10","250","140","false","rigged_win","","","",""
"830","","pre_stim","single-stim-button","351","441305","0.0-15.14-0.14","columbia-card-task-hot","false","0","26","830","830","0","test","15","15","3","10","250","150","false","rigged_win","","","",""
"534","","pre_stim","single-stim-button","352","441841","0.0-15.15-0.15","columbia-card-task-hot","false","0","27","534","534","0","test","15","16","3","10","250","160","false","rigged_win","","","",""
"758","","pre_stim","single-stim-button","353","442601","0.0-15.16-0.16","columbia-card-task-hot","false","0","28","758","758","0","test","15","17","3","10","250","170","false","rigged_win","","","",""
"485","","pre_stim","single-stim-button","354","443088","0.0-15.17-0.17","columbia-card-task-hot","false","0","29","485","485","0","test","15","18","3","10","250","180","false","rigged_win","","","",""
"534","","pre_stim","single-stim-button","355","443624","0.0-15.18-0.18","columbia-card-task-hot","false","0","30","534","534","0","test","15","19","3","10","250","190","false","rigged_win","","","",""
"558","","pre_stim","single-stim-button","356","444185","0.0-15.19-0.19","columbia-card-task-hot","false","0","31","558","558","0","test","15","20","3","10","250","200","false","rigged_win","","","",""
"1166","","pre_stim","single-stim-button","357","445353","0.0-15.20-0.20","columbia-card-task-hot","false","0","18","1166","1166","0","test","15","21","3","10","250","210","false","rigged_win","","","",""
"958","","pre_stim","single-stim-button","358","446313","0.0-15.21-0.21","columbia-card-task-hot","false","0","11","958","958","0","test","15","22","3","10","250","220","false","rigged_win","","","",""
"1413","","pre_stim","single-stim-button","359","447729","0.0-15.22-0.22","columbia-card-task-hot","false","0","20","1413","1413","0","test","15","23","3","10","250","230","false","rigged_win","","","",""
"741","","pre_stim","single-stim-button","360","448473","0.0-15.23-0.23","columbia-card-task-hot","false","0","13","741","741","0","test","15","24","3","10","250","240","false","rigged_win","","","",""
"709","","pre_stim","single-stim-button","361","449185","0.0-15.24-0.24","columbia-card-task-hot","false","0","22","709","709","0","test","15","25","3","10","250","250","false","rigged_win","","","",""
"1646","","pre_stim","single-stim-button","362","450832","0.0-15.25-0.25","columbia-card-task-hot","false","0","15","1646","1646","0","test","15","26","3","10","250","260","false","rigged_win","","","",""
"1718","","pre_stim","single-stim-button","363","452553","0.0-15.26-0.26","columbia-card-task-hot","false","0","turnButton","1718","1718","0","test","15","26","3","10","250","260","false","rigged_win","","","",""
"3005","","pre_stim","single-stim-button","364","455560","0.0-15.27-0.27","columbia-card-task-hot","false","0","collectButton","3005","3005","0","test","15","27","3","10","250","260","false","rigged_win","","","",""
"6342","","pre_stim","single-stim-button","365","461905","0.0-16.0-0.0","columbia-card-task-hot","false","0","1","6342","6342","0","test","16","1","3","10","750","10","false","rigged_win","","","",""
"1326","","pre_stim","single-stim-button","366","463233","0.0-16.1-0.1","columbia-card-task-hot","false","0","8","1326","1326","0","test","16","2","3","10","750","20","false","rigged_win","","","",""
"869","","pre_stim","single-stim-button","367","464105","0.0-16.2-0.2","columbia-card-task-hot","false","0","32","869","869","0","test","16","3","3","10","750","30","false","rigged_win","","","",""
"1022","","pre_stim","single-stim-button","368","465129","0.0-16.3-0.3","columbia-card-task-hot","false","0","25","1022","1022","0","test","16","4","3","10","750","40","false","rigged_win","","","",""
"1734","","pre_stim","single-stim-button","369","466865","0.0-16.4-0.4","columbia-card-task-hot","false","0","17","1734","1734","0","test","16","5","3","10","750","50","false","rigged_win","","","",""
"838","","pre_stim","single-stim-button","370","467705","0.0-16.5-0.5","columbia-card-task-hot","false","0","9","838","838","0","test","16","6","3","10","750","60","false","rigged_win","","","",""
"974","","pre_stim","single-stim-button","371","468681","0.0-16.6-0.6","columbia-card-task-hot","false","0","16","974","974","0","test","16","7","3","10","750","70","false","rigged_win","","","",""
"613","","pre_stim","single-stim-button","372","469297","0.0-16.7-0.7","columbia-card-task-hot","false","0","24","613","613","0","test","16","8","3","10","750","80","false","rigged_win","","","",""
"861","","pre_stim","single-stim-button","373","470161","0.0-16.8-0.8","columbia-card-task-hot","false","0","26","861","861","0","test","16","9","3","10","750","90","false","rigged_win","","","",""
"461","","pre_stim","single-stim-button","374","470625","0.0-16.9-0.9","columbia-card-task-hot","false","0","27","461","461","0","test","16","10","3","10","750","100","false","rigged_win","","","",""
"598","","pre_stim","single-stim-button","375","471225","0.0-16.10-0.10","columbia-card-task-hot","false","0","28","598","598","0","test","16","11","3","10","750","110","false","rigged_win","","","",""
"662","","pre_stim","single-stim-button","376","471889","0.0-16.11-0.11","columbia-card-task-hot","false","0","29","662","662","0","test","16","12","3","10","750","120","false","rigged_win","","","",""
"734","","pre_stim","single-stim-button","377","472625","0.0-16.12-0.12","columbia-card-task-hot","false","0","30","734","734","0","test","16","13","3","10","750","130","false","rigged_win","","","",""
"710","","pre_stim","single-stim-button","378","473337","0.0-16.13-0.13","columbia-card-task-hot","false","0","31","710","710","0","test","16","14","3","10","750","140","false","rigged_win","","","",""
"1006","","pre_stim","single-stim-button","379","474345","0.0-16.14-0.14","columbia-card-task-hot","false","0","2","1006","1006","0","test","16","15","3","10","750","150","false","rigged_win","","","",""
"974","","pre_stim","single-stim-button","380","475321","0.0-16.15-0.15","columbia-card-task-hot","false","0","3","974","974","0","test","16","16","3","10","750","160","false","rigged_win","","","",""
"806","","pre_stim","single-stim-button","381","476129","0.0-16.16-0.16","columbia-card-task-hot","false","0","4","806","806","0","test","16","17","3","10","750","170","false","rigged_win","","","",""
"622","","pre_stim","single-stim-button","382","476753","0.0-16.17-0.17","columbia-card-task-hot","false","0","5","622","622","0","test","16","18","3","10","750","180","false","rigged_win","","","",""
"637","","pre_stim","single-stim-button","383","477393","0.0-16.18-0.18","columbia-card-task-hot","false","0","6","637","637","0","test","16","19","3","10","750","190","false","rigged_win","","","",""
"1054","","pre_stim","single-stim-button","384","478448","0.0-16.19-0.19","columbia-card-task-hot","false","0","7","1054","1054","0","test","16","20","3","10","750","200","false","rigged_win","","","",""
"1294","","pre_stim","single-stim-button","385","479745","0.0-16.20-0.20","columbia-card-task-hot","false","0","10","1294","1294","0","test","16","21","3","10","750","210","false","rigged_win","","","",""
"1254","","pre_stim","single-stim-button","386","481000","0.0-16.21-0.21","columbia-card-task-hot","false","0","19","1254","1254","0","test","16","22","3","10","750","220","false","rigged_win","","","",""
"526","","pre_stim","single-stim-button","387","481528","0.0-16.22-0.22","columbia-card-task-hot","false","0","18","526","526","0","test","16","23","3","10","750","230","false","rigged_win","","","",""
"574","","pre_stim","single-stim-button","388","482105","0.0-16.23-0.23","columbia-card-task-hot","false","0","11","574","574","0","test","16","24","3","10","750","240","false","rigged_win","","","",""
"1214","","pre_stim","single-stim-button","389","483321","0.0-16.24-0.24","columbia-card-task-hot","false","0","15","1214","1214","0","test","16","25","3","10","750","250","false","rigged_win","","","",""
"774","","pre_stim","single-stim-button","390","484097","0.0-16.25-0.25","columbia-card-task-hot","false","0","23","774","774","0","test","16","26","3","10","750","260","false","rigged_win","","","",""
"725","","pre_stim","single-stim-button","391","484824","0.0-16.26-0.26","columbia-card-task-hot","false","0","22","725","725","0","test","16","27","3","10","750","270","false","rigged_win","","","",""
"766","","pre_stim","single-stim-button","392","485592","0.0-16.27-0.27","columbia-card-task-hot","false","0","14","766","766","0","test","16","28","3","10","750","280","false","rigged_win","","","",""
"2766","","pre_stim","single-stim-button","393","488360","0.0-16.28-0.28","columbia-card-task-hot","false","0","turnButton","2766","2766","0","test","16","28","3","10","750","280","false","rigged_win","","","",""
"3573","","pre_stim","single-stim-button","394","491936","0.0-16.29-0.29","columbia-card-task-hot","false","0","collectButton","3573","3573","0","test","16","29","3","10","750","280","false","rigged_win","","","",""
"6766","","pre_stim","single-stim-button","395","498705","0.0-17.0-0.0","columbia-card-task-hot","false","0","1","6766","6766","0","test","17","1","1","10","250","10","false","rigged_loss","","","",""
"1413","","pre_stim","single-stim-button","396","500120","0.0-17.1-0.1","columbia-card-task-hot","false","0","8","1413","1413","0","test","17","2","1","10","250","20","false","rigged_loss","","","",""
"838","","pre_stim","single-stim-button","397","500960","0.0-17.2-0.2","columbia-card-task-hot","false","0","32","838","838","0","test","17","3","1","10","250","30","false","rigged_loss","","","",""
"926","","pre_stim","single-stim-button","398","501889","0.0-17.3-0.3","columbia-card-task-hot","false","0","25","926","926","0","test","17","4","1","10","250","40","false","rigged_loss","","","",""
"998","","pre_stim","single-stim-button","399","502889","0.0-17.4-0.4","columbia-card-task-hot","false","0","26","998","998","0","test","17","5","1","10","250","50","false","rigged_loss","","","",""
"478","","pre_stim","single-stim-button","400","503369","0.0-17.5-0.5","columbia-card-task-hot","false","0","27","478","478","0","test","17","6","1","10","250","60","false","rigged_loss","","","",""
"445","","pre_stim","single-stim-button","401","503817","0.0-17.6-0.6","columbia-card-task-hot","false","0","28","445","445","0","test","17","7","1","10","250","70","false","rigged_loss","","","",""
"662","","pre_stim","single-stim-button","402","504481","0.0-17.7-0.7","columbia-card-task-hot","false","0","29","662","662","0","test","17","8","1","10","250","80","false","rigged_loss","","","",""
"509","","pre_stim","single-stim-button","403","504992","0.0-17.8-0.8","columbia-card-task-hot","false","0","30","509","509","0","test","17","9","1","10","250","90","false","rigged_loss","","","",""
"518","","pre_stim","single-stim-button","404","505513","0.0-17.9-0.9","columbia-card-task-hot","false","0","31","518","518","0","test","17","10","1","10","250","100","false","rigged_loss","","","",""
"597","","pre_stim","single-stim-button","405","506112","0.0-17.10-0.10","columbia-card-task-hot","false","0","24","597","597","0","test","17","11","1","10","250","-150","true","rigged_loss","","","",""
"6702","","pre_stim","single-stim-button","406","512816","0.0-17.11-0.11","columbia-card-task-hot","false","0","collectButton","6702","6702","0","test","17","12","1","10","250","-150","true","rigged_loss","","","",""
"6334","","pre_stim","single-stim-button","407","519153","0.0-18.0-0.0","columbia-card-task-hot","false","0","1","6334","6334","0","test","18","1","3","30","750","30","false","rigged_win","","","",""
"694","","pre_stim","single-stim-button","408","519849","0.0-18.1-0.1","columbia-card-task-hot","false","0","2","694","694","0","test","18","2","3","30","750","60","false","rigged_win","","","",""
"838","","pre_stim","single-stim-button","409","520688","0.0-18.2-0.2","columbia-card-task-hot","false","0","3","838","838","0","test","18","3","3","30","750","90","false","rigged_win","","","",""
"830","","pre_stim","single-stim-button","410","521521","0.0-18.3-0.3","columbia-card-task-hot","false","0","4","830","830","0","test","18","4","3","30","750","120","false","rigged_win","","","",""
"701","","pre_stim","single-stim-button","411","522224","0.0-18.4-0.4","columbia-card-task-hot","false","0","9","701","701","0","test","18","5","3","30","750","150","false","rigged_win","","","",""
"902","","pre_stim","single-stim-button","412","523128","0.0-18.5-0.5","columbia-card-task-hot","false","0","17","902","902","0","test","18","6","3","30","750","180","false","rigged_win","","","",""
"550","","pre_stim","single-stim-button","413","523680","0.0-18.6-0.6","columbia-card-task-hot","false","0","25","550","550","0","test","18","7","3","30","750","210","false","rigged_win","","","",""
"662","","pre_stim","single-stim-button","414","524344","0.0-18.7-0.7","columbia-card-task-hot","false","0","10","662","662","0","test","18","8","3","30","750","240","false","rigged_win","","","",""
"942","","pre_stim","single-stim-button","415","525289","0.0-18.8-0.8","columbia-card-task-hot","false","0","11","942","942","0","test","18","9","3","30","750","270","false","rigged_win","","","",""
"517","","pre_stim","single-stim-button","416","525809","0.0-18.9-0.9","columbia-card-task-hot","false","0","18","517","517","0","test","18","10","3","30","750","300","false","rigged_win","","","",""
"886","","pre_stim","single-stim-button","417","526697","0.0-18.10-0.10","columbia-card-task-hot","false","0","12","886","886","0","test","18","11","3","30","750","330","false","rigged_win","","","",""
"694","","pre_stim","single-stim-button","418","527393","0.0-18.11-0.11","columbia-card-task-hot","false","0","5","694","694","0","test","18","12","3","30","750","360","false","rigged_win","","","",""
"630","","pre_stim","single-stim-button","419","528025","0.0-18.12-0.12","columbia-card-task-hot","false","0","19","630","630","0","test","18","13","3","30","750","390","false","rigged_win","","","",""
"646","","pre_stim","single-stim-button","420","528672","0.0-18.13-0.13","columbia-card-task-hot","false","0","26","646","646","0","test","18","14","3","30","750","420","false","rigged_win","","","",""
"1158","","pre_stim","single-stim-button","421","529833","0.0-18.14-0.14","columbia-card-task-hot","false","0","6","1158","1158","0","test","18","15","3","30","750","450","false","rigged_win","","","",""
"606","","pre_stim","single-stim-button","422","530440","0.0-18.15-0.15","columbia-card-task-hot","false","0","7","606","606","0","test","18","16","3","30","750","480","false","rigged_win","","","",""
"566","","pre_stim","single-stim-button","423","531009","0.0-18.16-0.16","columbia-card-task-hot","false","0","8","566","566","0","test","18","17","3","30","750","510","false","rigged_win","","","",""
"470","","pre_stim","single-stim-button","424","531481","0.0-18.17-0.17","columbia-card-task-hot","false","0","16","470","470","0","test","18","18","3","30","750","540","false","rigged_win","","","",""
"726","","pre_stim","single-stim-button","425","532209","0.0-18.18-0.18","columbia-card-task-hot","false","0","24","726","726","0","test","18","19","3","30","750","570","false","rigged_win","","","",""
"542","","pre_stim","single-stim-button","426","532752","0.0-18.19-0.19","columbia-card-task-hot","false","0","32","542","542","0","test","18","20","3","30","750","600","false","rigged_win","","","",""
"678","","pre_stim","single-stim-button","427","533432","0.0-18.20-0.20","columbia-card-task-hot","false","0","31","678","678","0","test","18","21","3","30","750","630","false","rigged_win","","","",""
"622","","pre_stim","single-stim-button","428","534056","0.0-18.21-0.21","columbia-card-task-hot","false","0","30","622","622","0","test","18","22","3","30","750","660","false","rigged_win","","","",""
"606","","pre_stim","single-stim-button","429","534664","0.0-18.22-0.22","columbia-card-task-hot","false","0","29","606","606","0","test","18","23","3","30","750","690","false","rigged_win","","","",""
"726","","pre_stim","single-stim-button","430","535393","0.0-18.23-0.23","columbia-card-task-hot","false","0","28","726","726","0","test","18","24","3","30","750","720","false","rigged_win","","","",""
"510","","pre_stim","single-stim-button","431","535904","0.0-18.24-0.24","columbia-card-task-hot","false","0","27","510","510","0","test","18","25","3","30","750","750","false","rigged_win","","","",""
"1046","","pre_stim","single-stim-button","432","536953","0.0-18.25-0.25","columbia-card-task-hot","false","0","20","1046","1046","0","test","18","26","3","30","750","780","false","rigged_win","","","",""
"477","","pre_stim","single-stim-button","433","537432","0.0-18.26-0.26","columbia-card-task-hot","false","0","21","477","477","0","test","18","27","3","30","750","810","false","rigged_win","","","",""
"1614","","pre_stim","single-stim-button","434","539049","0.0-18.27-0.27","columbia-card-task-hot","false","0","13","1614","1614","0","test","18","28","3","30","750","840","false","rigged_win","","","",""
"1958","","pre_stim","single-stim-button","435","541009","0.0-18.28-0.28","columbia-card-task-hot","false","0","15","1958","1958","0","test","18","29","3","30","750","870","false","rigged_win","","","",""
"1861","","pre_stim","single-stim-button","436","542872","0.0-18.29-0.29","columbia-card-task-hot","false","0","turnButton","1861","1861","0","test","18","29","3","30","750","870","false","rigged_win","","","",""
"3166","","pre_stim","single-stim-button","437","546040","0.0-18.30-0.30","columbia-card-task-hot","false","0","collectButton","3166","3166","0","test","18","30","3","30","750","870","false","rigged_win","","","",""
"5902","","pre_stim","single-stim-button","438","551945","0.0-19.0-0.0","columbia-card-task-hot","false","0","1","5902","5902","0","test","19","1","3","30","250","30","false","rigged_loss","","","",""
"598","","pre_stim","single-stim-button","439","552545","0.0-19.1-0.1","columbia-card-task-hot","false","0","9","598","598","0","test","19","2","3","30","250","60","false","rigged_loss","","","",""
"748","","pre_stim","single-stim-button","440","553296","0.0-19.2-0.2","columbia-card-task-hot","false","0","17","748","748","0","test","19","3","3","30","250","90","false","rigged_loss","","","",""
"974","","pre_stim","single-stim-button","441","554273","0.0-19.3-0.3","columbia-card-task-hot","false","0","25","974","974","0","test","19","4","3","30","250","120","false","rigged_loss","","","",""
"533","","pre_stim","single-stim-button","442","554809","0.0-19.4-0.4","columbia-card-task-hot","false","0","26","533","533","0","test","19","5","3","30","250","150","false","rigged_loss","","","",""
"598","","pre_stim","single-stim-button","443","555409","0.0-19.5-0.5","columbia-card-task-hot","false","0","18","598","598","0","test","19","6","3","30","250","180","false","rigged_loss","","","",""
"981","","pre_stim","single-stim-button","444","556393","0.0-19.6-0.6","columbia-card-task-hot","false","0","10","981","981","0","test","19","7","3","30","250","210","false","rigged_loss","","","",""
"709","","pre_stim","single-stim-button","445","557105","0.0-19.7-0.7","columbia-card-task-hot","false","0","2","709","709","0","test","19","8","3","30","250","240","false","rigged_loss","","","",""
"1117","","pre_stim","single-stim-button","446","558224","0.0-19.8-0.8","columbia-card-task-hot","false","0","8","1117","1117","0","test","19","9","3","30","250","-10","true","rigged_loss","","","",""
"3270","","pre_stim","single-stim-button","447","561497","0.0-19.9-0.9","columbia-card-task-hot","false","0","collectButton","3270","3270","0","test","19","10","3","30","250","-10","true","rigged_loss","","","",""
"7038","","pre_stim","single-stim-button","448","568537","0.0-20.0-0.0","columbia-card-task-hot","false","0","8","7038","7038","0","test","20","1","1","10","750","10","false","rigged_loss","","","",""
"733","","pre_stim","single-stim-button","449","569272","0.0-20.1-0.1","columbia-card-task-hot","false","0","32","733","733","0","test","20","2","1","10","750","20","false","rigged_loss","","","",""
"1070","","pre_stim","single-stim-button","450","570345","0.0-20.2-0.2","columbia-card-task-hot","false","0","25","1070","1070","0","test","20","3","1","10","750","30","false","rigged_loss","","","",""
"1037","","pre_stim","single-stim-button","451","571384","0.0-20.3-0.3","columbia-card-task-hot","false","0","1","1037","1037","0","test","20","4","1","10","750","40","false","rigged_loss","","","",""
"1886","","pre_stim","single-stim-button","452","573273","0.0-20.4-0.4","columbia-card-task-hot","false","0","9","1886","1886","0","test","20","5","1","10","750","50","false","rigged_loss","","","",""
"949","","pre_stim","single-stim-button","453","574225","0.0-20.5-0.5","columbia-card-task-hot","false","0","17","949","949","0","test","20","6","1","10","750","60","false","rigged_loss","","","",""
"917","","pre_stim","single-stim-button","454","575145","0.0-20.6-0.6","columbia-card-task-hot","false","0","24","917","917","0","test","20","7","1","10","750","70","false","rigged_loss","","","",""
"486","","pre_stim","single-stim-button","455","575632","0.0-20.7-0.7","columbia-card-task-hot","false","0","16","486","486","0","test","20","8","1","10","750","80","false","rigged_loss","","","",""
"534","","pre_stim","single-stim-button","456","576169","0.0-20.8-0.8","columbia-card-task-hot","false","0","31","534","534","0","test","20","9","1","10","750","90","false","rigged_loss","","","",""
"709","","pre_stim","single-stim-button","457","576881","0.0-20.9-0.9","columbia-card-task-hot","false","0","30","709","709","0","test","20","10","1","10","750","-660","true","rigged_loss","","","",""
"3333","","pre_stim","single-stim-button","458","580217","0.0-20.10-0.10","columbia-card-task-hot","false","0","collectButton","3333","3333","0","test","20","11","1","10","750","-660","true","rigged_loss","","","",""
"37892","{""Q0"":""Aufdecken von Karten, um eine mglichst hohe Punktzahl zu erziehlen, ohne dabei eine Verlustkarte aufzudecken"",""Q1"":""""}","post task questions","survey-text","459","618113","0.0-21.0","columbia-card-task-hot","false","0","","","","","","","","","","","","","","true","0","",""
"6378","","","poldrack-text","460","625505","0.0-22.0","columbia-card-task-hot","false","0","","","6378","1000","","","","","","","","","","","","<div class = centerbox><p class = center-block-text>Finished with this task.</p></div>","17"
