"rt","responses","trial_id","trial_type","trial_index","time_elapsed","internal_node_id","exp_id","full_screen","focus_shifts","mouse_click","stim_duration","block_duration","timing_post_trial","exp_stage","which_round","num_click_in_round","num_loss_cards","gain_amount","loss_amount","round_points","clicked_on_loss_card","round_type","credit_var","performance_var","text","key_press"
"10655","{""Q0"":""0Uubv""}","pre task questions","survey-text","0","10657","0.0-0.0","columbia-card-task-hot","false","0","","","","","","","","","","","","","","","","",""
"6446","","pre_stim","single-stim-button","1","18105","0.0-1.0-0.0","columbia-card-task-hot","false","0","1","6446","6446","0","test","1","1","1","10","250","10","false","rigged_win","","","",""
"790","","pre_stim","single-stim-button","2","18896","0.0-1.1-0.1","columbia-card-task-hot","false","0","2","790","790","0","test","1","2","1","10","250","20","false","rigged_win","","","",""
"975","","pre_stim","single-stim-button","3","19872","0.0-1.2-0.2","columbia-card-task-hot","false","0","3","975","975","0","test","1","3","1","10","250","30","false","rigged_win","","","",""
"1111","","pre_stim","single-stim-button","4","20984","0.0-1.3-0.3","columbia-card-task-hot","false","0","9","1111","1111","0","test","1","4","1","10","250","40","false","rigged_win","","","",""
"1103","","pre_stim","single-stim-button","5","22087","0.0-1.4-0.4","columbia-card-task-hot","false","0","17","1103","1103","0","test","1","5","1","10","250","50","false","rigged_win","","","",""
"1055","","pre_stim","single-stim-button","6","23143","0.0-1.5-0.5","columbia-card-task-hot","false","0","25","1055","1055","0","test","1","6","1","10","250","60","false","rigged_win","","","",""
"1199","","pre_stim","single-stim-button","7","24344","0.0-1.6-0.6","columbia-card-task-hot","false","0","18","1199","1199","0","test","1","7","1","10","250","70","false","rigged_win","","","",""
"1567","","pre_stim","single-stim-button","8","25912","0.0-1.7-0.7","columbia-card-task-hot","false","0","11","1567","1567","0","test","1","8","1","10","250","80","false","rigged_win","","","",""
"2063","","pre_stim","single-stim-button","9","27976","0.0-1.8-0.8","columbia-card-task-hot","false","0","5","2063","2063","0","test","1","9","1","10","250","90","false","rigged_win","","","",""
"687","","pre_stim","single-stim-button","10","28664","0.0-1.9-0.9","columbia-card-task-hot","false","0","12","687","687","0","test","1","10","1","10","250","100","false","rigged_win","","","",""
"703","","pre_stim","single-stim-button","11","29368","0.0-1.10-0.10","columbia-card-task-hot","false","0","4","703","703","0","test","1","11","1","10","250","110","false","rigged_win","","","",""
"2199","","pre_stim","single-stim-button","12","31568","0.0-1.11-0.11","columbia-card-task-hot","false","0","6","2199","2199","0","test","1","12","1","10","250","120","false","rigged_win","","","",""
"975","","pre_stim","single-stim-button","13","32544","0.0-1.12-0.12","columbia-card-task-hot","false","0","7","975","975","0","test","1","13","1","10","250","130","false","rigged_win","","","",""
"1559","","pre_stim","single-stim-button","14","34104","0.0-1.13-0.13","columbia-card-task-hot","false","0","8","1559","1559","0","test","1","14","1","10","250","140","false","rigged_win","","","",""
"735","","pre_stim","single-stim-button","15","34840","0.0-1.14-0.14","columbia-card-task-hot","false","0","16","735","735","0","test","1","15","1","10","250","150","false","rigged_win","","","",""
"895","","pre_stim","single-stim-button","16","35735","0.0-1.15-0.15","columbia-card-task-hot","false","0","24","895","895","0","test","1","16","1","10","250","160","false","rigged_win","","","",""
"888","","pre_stim","single-stim-button","17","36623","0.0-1.16-0.16","columbia-card-task-hot","false","0","32","888","888","0","test","1","17","1","10","250","170","false","rigged_win","","","",""
"911","","pre_stim","single-stim-button","18","37535","0.0-1.17-0.17","columbia-card-task-hot","false","0","31","911","911","0","test","1","18","1","10","250","180","false","rigged_win","","","",""
"1000","","pre_stim","single-stim-button","19","38536","0.0-1.18-0.18","columbia-card-task-hot","false","0","30","1000","1000","0","test","1","19","1","10","250","190","false","rigged_win","","","",""
"919","","pre_stim","single-stim-button","20","39455","0.0-1.19-0.19","columbia-card-task-hot","false","0","29","919","919","0","test","1","20","1","10","250","200","false","rigged_win","","","",""
"1071","","pre_stim","single-stim-button","21","40527","0.0-1.20-0.20","columbia-card-task-hot","false","0","22","1071","1071","0","test","1","21","1","10","250","210","false","rigged_win","","","",""
"1215","","pre_stim","single-stim-button","22","41744","0.0-1.21-0.21","columbia-card-task-hot","false","0","15","1215","1215","0","test","1","22","1","10","250","220","false","rigged_win","","","",""
"823","","pre_stim","single-stim-button","23","42568","0.0-1.22-0.22","columbia-card-task-hot","false","0","13","823","823","0","test","1","23","1","10","250","230","false","rigged_win","","","",""
"4135","","pre_stim","single-stim-button","24","46703","0.0-1.23-0.23","columbia-card-task-hot","false","0","27","4135","4135","0","test","1","24","1","10","250","240","false","rigged_win","","","",""
"1303","","pre_stim","single-stim-button","25","48007","0.0-1.24-0.24","columbia-card-task-hot","false","0","20","1303","1303","0","test","1","25","1","10","250","250","false","rigged_win","","","",""
"991","","pre_stim","single-stim-button","26","48999","0.0-1.25-0.25","columbia-card-task-hot","false","0","26","991","991","0","test","1","26","1","10","250","260","false","rigged_win","","","",""
"887","","pre_stim","single-stim-button","27","49887","0.0-1.26-0.26","columbia-card-task-hot","false","0","28","887","887","0","test","1","27","1","10","250","270","false","rigged_win","","","",""
"1423","","pre_stim","single-stim-button","28","51311","0.0-1.27-0.27","columbia-card-task-hot","false","0","21","1423","1423","0","test","1","28","1","10","250","280","false","rigged_win","","","",""
"1071","","pre_stim","single-stim-button","29","52383","0.0-1.28-0.28","columbia-card-task-hot","false","0","19","1071","1071","0","test","1","29","1","10","250","290","false","rigged_win","","","",""
"1751","","pre_stim","single-stim-button","30","54136","0.0-1.29-0.29","columbia-card-task-hot","false","0","14","1751","1751","0","test","1","30","1","10","250","300","false","rigged_win","","","",""
"1151","","pre_stim","single-stim-button","31","55288","0.0-1.30-0.30","columbia-card-task-hot","false","0","23","1151","1151","0","test","1","31","1","10","250","310","false","rigged_win","","","",""
"1335","","pre_stim","single-stim-button","32","56623","0.0-1.31-0.31","columbia-card-task-hot","false","0","turnButton","1335","1335","0","test","1","31","1","10","250","310","false","rigged_win","","","",""
"2775","","pre_stim","single-stim-button","33","59399","0.0-1.32-0.32","columbia-card-task-hot","false","0","collectButton","2775","2775","0","test","1","32","1","10","250","310","false","rigged_win","","","",""
"6752","","pre_stim","single-stim-button","34","66152","0.0-2.0-0.0","columbia-card-task-hot","false","0","1","6752","6752","0","test","2","1","1","30","250","30","false","rigged_loss","","","",""
"1063","","pre_stim","single-stim-button","35","67216","0.0-2.1-0.1","columbia-card-task-hot","false","0","2","1063","1063","0","test","2","2","1","30","250","60","false","rigged_loss","","","",""
"1199","","pre_stim","single-stim-button","36","68415","0.0-2.2-0.2","columbia-card-task-hot","false","0","3","1199","1199","0","test","2","3","1","30","250","90","false","rigged_loss","","","",""
"1687","","pre_stim","single-stim-button","37","70104","0.0-2.3-0.3","columbia-card-task-hot","false","0","10","1687","1687","0","test","2","4","1","30","250","-160","true","rigged_loss","","","",""
"4047","","pre_stim","single-stim-button","38","74151","0.0-2.4-0.4","columbia-card-task-hot","false","0","collectButton","4047","4047","0","test","2","5","1","30","250","-160","true","rigged_loss","","","",""
"6655","","pre_stim","single-stim-button","39","80808","0.0-3.0-0.0","columbia-card-task-hot","false","0","32","6655","6655","0","test","3","1","1","30","750","30","false","rigged_win","","","",""
"775","","pre_stim","single-stim-button","40","81583","0.0-3.1-0.1","columbia-card-task-hot","false","0","31","775","775","0","test","3","2","1","30","750","60","false","rigged_win","","","",""
"767","","pre_stim","single-stim-button","41","82351","0.0-3.2-0.2","columbia-card-task-hot","false","0","30","767","767","0","test","3","3","1","30","750","90","false","rigged_win","","","",""
"711","","pre_stim","single-stim-button","42","83064","0.0-3.3-0.3","columbia-card-task-hot","false","0","29","711","711","0","test","3","4","1","30","750","120","false","rigged_win","","","",""
"759","","pre_stim","single-stim-button","43","83824","0.0-3.4-0.4","columbia-card-task-hot","false","0","28","759","759","0","test","3","5","1","30","750","150","false","rigged_win","","","",""
"1015","","pre_stim","single-stim-button","44","84839","0.0-3.5-0.5","columbia-card-task-hot","false","0","27","1015","1015","0","test","3","6","1","30","750","180","false","rigged_win","","","",""
"495","","pre_stim","single-stim-button","45","85335","0.0-3.6-0.6","columbia-card-task-hot","false","0","26","495","495","0","test","3","7","1","30","750","210","false","rigged_win","","","",""
"503","","pre_stim","single-stim-button","46","85840","0.0-3.7-0.7","columbia-card-task-hot","false","0","25","503","503","0","test","3","8","1","30","750","240","false","rigged_win","","","",""
"791","","pre_stim","single-stim-button","47","86631","0.0-3.8-0.8","columbia-card-task-hot","false","0","17","791","791","0","test","3","9","1","30","750","270","false","rigged_win","","","",""
"879","","pre_stim","single-stim-button","48","87512","0.0-3.9-0.9","columbia-card-task-hot","false","0","9","879","879","0","test","3","10","1","30","750","300","false","rigged_win","","","",""
"1231","","pre_stim","single-stim-button","49","88744","0.0-3.10-0.10","columbia-card-task-hot","false","0","1","1231","1231","0","test","3","11","1","30","750","330","false","rigged_win","","","",""
"591","","pre_stim","single-stim-button","50","89336","0.0-3.11-0.11","columbia-card-task-hot","false","0","2","591","591","0","test","3","12","1","30","750","360","false","rigged_win","","","",""
"575","","pre_stim","single-stim-button","51","89912","0.0-3.12-0.12","columbia-card-task-hot","false","0","10","575","575","0","test","3","13","1","30","750","390","false","rigged_win","","","",""
"583","","pre_stim","single-stim-button","52","90495","0.0-3.13-0.13","columbia-card-task-hot","false","0","18","583","583","0","test","3","14","1","30","750","420","false","rigged_win","","","",""
"799","","pre_stim","single-stim-button","53","91296","0.0-3.14-0.14","columbia-card-task-hot","false","0","19","799","799","0","test","3","15","1","30","750","450","false","rigged_win","","","",""
"647","","pre_stim","single-stim-button","54","91944","0.0-3.15-0.15","columbia-card-task-hot","false","0","11","647","647","0","test","3","16","1","30","750","480","false","rigged_win","","","",""
"687","","pre_stim","single-stim-button","55","92631","0.0-3.16-0.16","columbia-card-task-hot","false","0","3","687","687","0","test","3","17","1","30","750","510","false","rigged_win","","","",""
"488","","pre_stim","single-stim-button","56","93120","0.0-3.17-0.17","columbia-card-task-hot","false","0","4","488","488","0","test","3","18","1","30","750","540","false","rigged_win","","","",""
"591","","pre_stim","single-stim-button","57","93712","0.0-3.18-0.18","columbia-card-task-hot","false","0","12","591","591","0","test","3","19","1","30","750","570","false","rigged_win","","","",""
"703","","pre_stim","single-stim-button","58","94416","0.0-3.19-0.19","columbia-card-task-hot","false","0","20","703","703","0","test","3","20","1","30","750","600","false","rigged_win","","","",""
"687","","pre_stim","single-stim-button","59","95103","0.0-3.20-0.20","columbia-card-task-hot","false","0","5","687","687","0","test","3","21","1","30","750","630","false","rigged_win","","","",""
"671","","pre_stim","single-stim-button","60","95776","0.0-3.21-0.21","columbia-card-task-hot","false","0","6","671","671","0","test","3","22","1","30","750","660","false","rigged_win","","","",""
"743","","pre_stim","single-stim-button","61","96519","0.0-3.22-0.22","columbia-card-task-hot","false","0","7","743","743","0","test","3","23","1","30","750","690","false","rigged_win","","","",""
"823","","pre_stim","single-stim-button","62","97343","0.0-3.23-0.23","columbia-card-task-hot","false","0","8","823","823","0","test","3","24","1","30","750","720","false","rigged_win","","","",""
"719","","pre_stim","single-stim-button","63","98063","0.0-3.24-0.24","columbia-card-task-hot","false","0","13","719","719","0","test","3","25","1","30","750","750","false","rigged_win","","","",""
"711","","pre_stim","single-stim-button","64","98776","0.0-3.25-0.25","columbia-card-task-hot","false","0","14","711","711","0","test","3","26","1","30","750","780","false","rigged_win","","","",""
"671","","pre_stim","single-stim-button","65","99447","0.0-3.26-0.26","columbia-card-task-hot","false","0","15","671","671","0","test","3","27","1","30","750","810","false","rigged_win","","","",""
"639","","pre_stim","single-stim-button","66","100088","0.0-3.27-0.27","columbia-card-task-hot","false","0","16","639","639","0","test","3","28","1","30","750","840","false","rigged_win","","","",""
"879","","pre_stim","single-stim-button","67","100967","0.0-3.28-0.28","columbia-card-task-hot","false","0","21","879","879","0","test","3","29","1","30","750","870","false","rigged_win","","","",""
"1135","","pre_stim","single-stim-button","68","102104","0.0-3.29-0.29","columbia-card-task-hot","false","0","24","1135","1135","0","test","3","30","1","30","750","900","false","rigged_win","","","",""
"1087","","pre_stim","single-stim-button","69","103191","0.0-3.30-0.30","columbia-card-task-hot","false","0","turnButton","1087","1087","0","test","3","30","1","30","750","900","false","rigged_win","","","",""
"3215","","pre_stim","single-stim-button","70","106408","0.0-3.31-0.31","columbia-card-task-hot","false","0","collectButton","3215","3215","0","test","3","31","1","30","750","900","false","rigged_win","","","",""
"6223","","pre_stim","single-stim-button","71","112632","0.0-4.0-0.0","columbia-card-task-hot","false","0","25","6223","6223","0","test","4","1","1","10","250","10","false","rigged_loss","","","",""
"727","","pre_stim","single-stim-button","72","113359","0.0-4.1-0.1","columbia-card-task-hot","false","0","17","727","727","0","test","4","2","1","10","250","20","false","rigged_loss","","","",""
"759","","pre_stim","single-stim-button","73","114120","0.0-4.2-0.2","columbia-card-task-hot","false","0","9","759","759","0","test","4","3","1","10","250","30","false","rigged_loss","","","",""
"743","","pre_stim","single-stim-button","74","114863","0.0-4.3-0.3","columbia-card-task-hot","false","0","1","743","743","0","test","4","4","1","10","250","40","false","rigged_loss","","","",""
"1263","","pre_stim","single-stim-button","75","116127","0.0-4.4-0.4","columbia-card-task-hot","false","0","18","1263","1263","0","test","4","5","1","10","250","-210","true","rigged_loss","","","",""
"2975","","pre_stim","single-stim-button","76","119103","0.0-4.5-0.5","columbia-card-task-hot","false","0","collectButton","2975","2975","0","test","4","6","1","10","250","-210","true","rigged_loss","","","",""
"6559","","pre_stim","single-stim-button","77","125664","0.0-5.0-0.0","columbia-card-task-hot","false","0","25","6559","6559","0","test","5","1","3","30","250","30","false","rigged_win","","","",""
"1303","","pre_stim","single-stim-button","78","126967","0.0-5.1-0.1","columbia-card-task-hot","false","0","17","1303","1303","0","test","5","2","3","30","250","60","false","rigged_win","","","",""
"1439","","pre_stim","single-stim-button","79","128408","0.0-5.2-0.2","columbia-card-task-hot","false","0","9","1439","1439","0","test","5","3","3","30","250","90","false","rigged_win","","","",""
"942","","pre_stim","single-stim-button","80","129351","0.0-5.3-0.3","columbia-card-task-hot","false","0","1","942","942","0","test","5","4","3","30","250","120","false","rigged_win","","","",""
"1575","","pre_stim","single-stim-button","81","130928","0.0-5.4-0.4","columbia-card-task-hot","false","0","8","1575","1575","0","test","5","5","3","30","250","150","false","rigged_win","","","",""
"1047","","pre_stim","single-stim-button","82","131976","0.0-5.5-0.5","columbia-card-task-hot","false","0","32","1047","1047","0","test","5","6","3","30","250","180","false","rigged_win","","","",""
"2567","","pre_stim","single-stim-button","83","134544","0.0-5.6-0.6","columbia-card-task-hot","false","0","2","2567","2567","0","test","5","7","3","30","250","210","false","rigged_win","","","",""
"791","","pre_stim","single-stim-button","84","135335","0.0-5.7-0.7","columbia-card-task-hot","false","0","4","791","791","0","test","5","8","3","30","250","240","false","rigged_win","","","",""
"943","","pre_stim","single-stim-button","85","136279","0.0-5.8-0.8","columbia-card-task-hot","false","0","6","943","943","0","test","5","9","3","30","250","270","false","rigged_win","","","",""
"1191","","pre_stim","single-stim-button","86","137472","0.0-5.9-0.9","columbia-card-task-hot","false","0","11","1191","1191","0","test","5","10","3","30","250","300","false","rigged_win","","","",""
"831","","pre_stim","single-stim-button","87","138304","0.0-5.10-0.10","columbia-card-task-hot","false","0","13","831","831","0","test","5","11","3","30","250","330","false","rigged_win","","","",""
"942","","pre_stim","single-stim-button","88","139248","0.0-5.11-0.11","columbia-card-task-hot","false","0","15","942","942","0","test","5","12","3","30","250","360","false","rigged_win","","","",""
"1256","","pre_stim","single-stim-button","89","140504","0.0-5.12-0.12","columbia-card-task-hot","false","0","24","1256","1256","0","test","5","13","3","30","250","390","false","rigged_win","","","",""
"1486","","pre_stim","single-stim-button","90","141992","0.0-5.13-0.13","columbia-card-task-hot","false","0","22","1486","1486","0","test","5","14","3","30","250","420","false","rigged_win","","","",""
"2239","","pre_stim","single-stim-button","91","144232","0.0-5.14-0.14","columbia-card-task-hot","false","0","18","2239","2239","0","test","5","15","3","30","250","450","false","rigged_win","","","",""
"622","","pre_stim","single-stim-button","92","144856","0.0-5.15-0.15","columbia-card-task-hot","false","0","20","622","622","0","test","5","16","3","30","250","480","false","rigged_win","","","",""
"2767","","pre_stim","single-stim-button","93","147624","0.0-5.16-0.16","columbia-card-task-hot","false","0","3","2767","2767","0","test","5","17","3","30","250","510","false","rigged_win","","","",""
"1190","","pre_stim","single-stim-button","94","148816","0.0-5.17-0.17","columbia-card-task-hot","false","0","10","1190","1190","0","test","5","18","3","30","250","540","false","rigged_win","","","",""
"904","","pre_stim","single-stim-button","95","149720","0.0-5.18-0.18","columbia-card-task-hot","false","0","5","904","904","0","test","5","19","3","30","250","570","false","rigged_win","","","",""
"2638","","pre_stim","single-stim-button","96","152360","0.0-5.19-0.19","columbia-card-task-hot","false","0","23","2638","2638","0","test","5","20","3","30","250","600","false","rigged_win","","","",""
"1175","","pre_stim","single-stim-button","97","153536","0.0-5.20-0.20","columbia-card-task-hot","false","0","16","1175","1175","0","test","5","21","3","30","250","630","false","rigged_win","","","",""
"1143","","pre_stim","single-stim-button","98","154680","0.0-5.21-0.21","columbia-card-task-hot","false","0","14","1143","1143","0","test","5","22","3","30","250","660","false","rigged_win","","","",""
"1766","","pre_stim","single-stim-button","99","156448","0.0-5.22-0.22","columbia-card-task-hot","false","0","7","1766","1766","0","test","5","23","3","30","250","690","false","rigged_win","","","",""
"1327","","pre_stim","single-stim-button","100","157775","0.0-5.23-0.23","columbia-card-task-hot","false","0","29","1327","1327","0","test","5","24","3","30","250","720","false","rigged_win","","","",""
"1055","","pre_stim","single-stim-button","101","158832","0.0-5.24-0.24","columbia-card-task-hot","false","0","27","1055","1055","0","test","5","25","3","30","250","750","false","rigged_win","","","",""
"1719","","pre_stim","single-stim-button","102","160552","0.0-5.25-0.25","columbia-card-task-hot","false","0","12","1719","1719","0","test","5","26","3","30","250","780","false","rigged_win","","","",""
"1999","","pre_stim","single-stim-button","103","162552","0.0-5.26-0.26","columbia-card-task-hot","false","0","31","1999","1999","0","test","5","27","3","30","250","810","false","rigged_win","","","",""
"1606","","pre_stim","single-stim-button","104","164160","0.0-5.27-0.27","columbia-card-task-hot","false","0","turnButton","1606","1606","0","test","5","27","3","30","250","810","false","rigged_win","","","",""
"3352","","pre_stim","single-stim-button","105","167512","0.0-5.28-0.28","columbia-card-task-hot","false","0","collectButton","3352","3352","0","test","5","28","3","30","250","810","false","rigged_win","","","",""
"7182","","pre_stim","single-stim-button","106","174696","0.0-6.0-0.0","columbia-card-task-hot","false","0","1","7182","7182","0","test","6","1","3","10","250","10","false","rigged_win","","","",""
"992","","pre_stim","single-stim-button","107","175688","0.0-6.1-0.1","columbia-card-task-hot","false","0","3","992","992","0","test","6","2","3","10","250","20","false","rigged_win","","","",""
"1190","","pre_stim","single-stim-button","108","176880","0.0-6.2-0.2","columbia-card-task-hot","false","0","5","1190","1190","0","test","6","3","3","10","250","30","false","rigged_win","","","",""
"966","","pre_stim","single-stim-button","109","177848","0.0-6.3-0.3","columbia-card-task-hot","false","0","7","966","966","0","test","6","4","3","10","250","40","false","rigged_win","","","",""
"2070","","pre_stim","single-stim-button","110","179920","0.0-6.4-0.4","columbia-card-task-hot","false","0","16","2070","2070","0","test","6","5","3","10","250","50","false","rigged_win","","","",""
"1678","","pre_stim","single-stim-button","111","181600","0.0-6.5-0.5","columbia-card-task-hot","false","0","14","1678","1678","0","test","6","6","3","10","250","60","false","rigged_win","","","",""
"871","","pre_stim","single-stim-button","112","182472","0.0-6.6-0.6","columbia-card-task-hot","false","0","12","871","871","0","test","6","7","3","10","250","70","false","rigged_win","","","",""
"2134","","pre_stim","single-stim-button","113","184608","0.0-6.7-0.7","columbia-card-task-hot","false","0","10","2134","2134","0","test","6","8","3","10","250","80","false","rigged_win","","","",""
"1094","","pre_stim","single-stim-button","114","185704","0.0-6.8-0.8","columbia-card-task-hot","false","0","2","1094","1094","0","test","6","9","3","10","250","90","false","rigged_win","","","",""
"1550","","pre_stim","single-stim-button","115","187256","0.0-6.9-0.9","columbia-card-task-hot","false","0","17","1550","1550","0","test","6","10","3","10","250","100","false","rigged_win","","","",""
"1063","","pre_stim","single-stim-button","116","188320","0.0-6.10-0.10","columbia-card-task-hot","false","0","9","1063","1063","0","test","6","11","3","10","250","110","false","rigged_win","","","",""
"1591","","pre_stim","single-stim-button","117","189911","0.0-6.11-0.11","columbia-card-task-hot","false","0","11","1591","1591","0","test","6","12","3","10","250","120","false","rigged_win","","","",""
"1648","","pre_stim","single-stim-button","118","191560","0.0-6.12-0.12","columbia-card-task-hot","false","0","4","1648","1648","0","test","6","13","3","10","250","130","false","rigged_win","","","",""
"1190","","pre_stim","single-stim-button","119","192752","0.0-6.13-0.13","columbia-card-task-hot","false","0","6","1190","1190","0","test","6","14","3","10","250","140","false","rigged_win","","","",""
"1287","","pre_stim","single-stim-button","120","194040","0.0-6.14-0.14","columbia-card-task-hot","false","0","8","1287","1287","0","test","6","15","3","10","250","150","false","rigged_win","","","",""
"1126","","pre_stim","single-stim-button","121","195168","0.0-6.15-0.15","columbia-card-task-hot","false","0","24","1126","1126","0","test","6","16","3","10","250","160","false","rigged_win","","","",""
"686","","pre_stim","single-stim-button","122","195856","0.0-6.16-0.16","columbia-card-task-hot","false","0","32","686","686","0","test","6","17","3","10","250","170","false","rigged_win","","","",""
"983","","pre_stim","single-stim-button","123","196840","0.0-6.17-0.17","columbia-card-task-hot","false","0","30","983","983","0","test","6","18","3","10","250","180","false","rigged_win","","","",""
"974","","pre_stim","single-stim-button","124","197816","0.0-6.18-0.18","columbia-card-task-hot","false","0","31","974","974","0","test","6","19","3","10","250","190","false","rigged_win","","","",""
"1214","","pre_stim","single-stim-button","125","199031","0.0-6.19-0.19","columbia-card-task-hot","false","0","20","1214","1214","0","test","6","20","3","10","250","200","false","rigged_win","","","",""
"2311","","pre_stim","single-stim-button","126","201343","0.0-6.20-0.20","columbia-card-task-hot","false","0","28","2311","2311","0","test","6","21","3","10","250","210","false","rigged_win","","","",""
"862","","pre_stim","single-stim-button","127","202207","0.0-6.21-0.21","columbia-card-task-hot","false","0","26","862","862","0","test","6","22","3","10","250","220","false","rigged_win","","","",""
"846","","pre_stim","single-stim-button","128","203055","0.0-6.22-0.22","columbia-card-task-hot","false","0","25","846","846","0","test","6","23","3","10","250","230","false","rigged_win","","","",""
"719","","pre_stim","single-stim-button","129","203775","0.0-6.23-0.23","columbia-card-task-hot","false","0","27","719","719","0","test","6","24","3","10","250","240","false","rigged_win","","","",""
"887","","pre_stim","single-stim-button","130","204663","0.0-6.24-0.24","columbia-card-task-hot","false","0","19","887","887","0","test","6","25","3","10","250","250","false","rigged_win","","","",""
"1199","","pre_stim","single-stim-button","131","205863","0.0-6.25-0.25","columbia-card-task-hot","false","0","13","1199","1199","0","test","6","26","3","10","250","260","false","rigged_win","","","",""
"1086","","pre_stim","single-stim-button","132","206951","0.0-6.26-0.26","columbia-card-task-hot","false","0","22","1086","1086","0","test","6","27","3","10","250","270","false","rigged_win","","","",""
"1151","","pre_stim","single-stim-button","133","208103","0.0-6.27-0.27","columbia-card-task-hot","false","0","29","1151","1151","0","test","6","28","3","10","250","280","false","rigged_win","","","",""
"1518","","pre_stim","single-stim-button","134","209623","0.0-6.28-0.28","columbia-card-task-hot","false","0","23","1518","1518","0","test","6","29","3","10","250","290","false","rigged_win","","","",""
"1559","","pre_stim","single-stim-button","135","211183","0.0-6.29-0.29","columbia-card-task-hot","false","0","turnButton","1559","1559","0","test","6","29","3","10","250","290","false","rigged_win","","","",""
"3319","","pre_stim","single-stim-button","136","214503","0.0-6.30-0.30","columbia-card-task-hot","false","0","collectButton","3319","3319","0","test","6","30","3","10","250","290","false","rigged_win","","","",""
"6247","","pre_stim","single-stim-button","137","220751","0.0-7.0-0.0","columbia-card-task-hot","false","0","3","6247","6247","0","test","7","1","3","30","750","30","false","rigged_loss","","","",""
"1191","","pre_stim","single-stim-button","138","221943","0.0-7.1-0.1","columbia-card-task-hot","false","0","9","1191","1191","0","test","7","2","3","30","750","60","false","rigged_loss","","","",""
"1438","","pre_stim","single-stim-button","139","223383","0.0-7.2-0.2","columbia-card-task-hot","false","0","10","1438","1438","0","test","7","3","3","30","750","90","false","rigged_loss","","","",""
"1110","","pre_stim","single-stim-button","140","224495","0.0-7.3-0.3","columbia-card-task-hot","false","0","1","1110","1110","0","test","7","4","3","30","750","120","false","rigged_loss","","","",""
"1270","","pre_stim","single-stim-button","141","225767","0.0-7.4-0.4","columbia-card-task-hot","false","0","2","1270","1270","0","test","7","5","3","30","750","-630","true","rigged_loss","","","",""
"4158","","pre_stim","single-stim-button","142","229927","0.0-7.5-0.5","columbia-card-task-hot","false","0","collectButton","4158","4158","0","test","7","6","3","30","750","-630","true","rigged_loss","","","",""
"6215","","pre_stim","single-stim-button","143","236143","0.0-8.0-0.0","columbia-card-task-hot","false","0","1","6215","6215","0","test","8","1","1","10","250","10","false","rigged_loss","","","",""
"839","","pre_stim","single-stim-button","144","236983","0.0-8.1-0.1","columbia-card-task-hot","false","0","2","839","839","0","test","8","2","1","10","250","20","false","rigged_loss","","","",""
"791","","pre_stim","single-stim-button","145","237775","0.0-8.2-0.2","columbia-card-task-hot","false","0","3","791","791","0","test","8","3","1","10","250","30","false","rigged_loss","","","",""
"1022","","pre_stim","single-stim-button","146","238799","0.0-8.3-0.3","columbia-card-task-hot","false","0","9","1022","1022","0","test","8","4","1","10","250","40","false","rigged_loss","","","",""
"1030","","pre_stim","single-stim-button","147","239831","0.0-8.4-0.4","columbia-card-task-hot","false","0","17","1030","1030","0","test","8","5","1","10","250","50","false","rigged_loss","","","",""
"822","","pre_stim","single-stim-button","148","240655","0.0-8.5-0.5","columbia-card-task-hot","false","0","25","822","822","0","test","8","6","1","10","250","60","false","rigged_loss","","","",""
"567","","pre_stim","single-stim-button","149","241223","0.0-8.6-0.6","columbia-card-task-hot","false","0","26","567","567","0","test","8","7","1","10","250","70","false","rigged_loss","","","",""
"1086","","pre_stim","single-stim-button","150","242311","0.0-8.7-0.7","columbia-card-task-hot","false","0","27","1086","1086","0","test","8","8","1","10","250","80","false","rigged_loss","","","",""
"703","","pre_stim","single-stim-button","151","243015","0.0-8.8-0.8","columbia-card-task-hot","false","0","28","703","703","0","test","8","9","1","10","250","90","false","rigged_loss","","","",""
"1342","","pre_stim","single-stim-button","152","244359","0.0-8.9-0.9","columbia-card-task-hot","false","0","11","1342","1342","0","test","8","10","1","10","250","-160","true","rigged_loss","","","",""
"3927","","pre_stim","single-stim-button","153","248287","0.0-8.10-0.10","columbia-card-task-hot","false","0","collectButton","3927","3927","0","test","8","11","1","10","250","-160","true","rigged_loss","","","",""
"6935","","pre_stim","single-stim-button","154","255223","0.0-9.0-0.0","columbia-card-task-hot","false","0","1","6935","6935","0","test","9","1","1","10","750","10","false","rigged_loss","","","",""
"486","","pre_stim","single-stim-button","155","255711","0.0-9.1-0.1","columbia-card-task-hot","false","0","2","486","486","0","test","9","2","1","10","750","20","false","rigged_loss","","","",""
"526","","pre_stim","single-stim-button","156","256239","0.0-9.2-0.2","columbia-card-task-hot","false","0","3","526","526","0","test","9","3","1","10","750","30","false","rigged_loss","","","",""
"502","","pre_stim","single-stim-button","157","256743","0.0-9.3-0.3","columbia-card-task-hot","false","0","4","502","502","0","test","9","4","1","10","750","40","false","rigged_loss","","","",""
"447","","pre_stim","single-stim-button","158","257191","0.0-9.4-0.4","columbia-card-task-hot","false","0","5","447","447","0","test","9","5","1","10","750","50","false","rigged_loss","","","",""
"495","","pre_stim","single-stim-button","159","257687","0.0-9.5-0.5","columbia-card-task-hot","false","0","6","495","495","0","test","9","6","1","10","750","60","false","rigged_loss","","","",""
"487","","pre_stim","single-stim-button","160","258175","0.0-9.6-0.6","columbia-card-task-hot","false","0","7","487","487","0","test","9","7","1","10","750","70","false","rigged_loss","","","",""
"487","","pre_stim","single-stim-button","161","258663","0.0-9.7-0.7","columbia-card-task-hot","false","0","8","487","487","0","test","9","8","1","10","750","80","false","rigged_loss","","","",""
"670","","pre_stim","single-stim-button","162","259334","0.0-9.8-0.8","columbia-card-task-hot","false","0","16","670","670","0","test","9","9","1","10","750","-670","true","rigged_loss","","","",""
"5415","","pre_stim","single-stim-button","163","264751","0.0-9.9-0.9","columbia-card-task-hot","false","0","collectButton","5415","5415","0","test","9","10","1","10","750","-670","true","rigged_loss","","","",""
"7302","","pre_stim","single-stim-button","164","272055","0.0-10.0-0.0","columbia-card-task-hot","false","0","1","7302","7302","0","test","10","1","1","30","250","30","false","rigged_win","","","",""
"983","","pre_stim","single-stim-button","165","273038","0.0-10.1-0.1","columbia-card-task-hot","false","0","9","983","983","0","test","10","2","1","30","250","60","false","rigged_win","","","",""
"559","","pre_stim","single-stim-button","166","273598","0.0-10.2-0.2","columbia-card-task-hot","false","0","17","559","559","0","test","10","3","1","30","250","90","false","rigged_win","","","",""
"1055","","pre_stim","single-stim-button","167","274655","0.0-10.3-0.3","columbia-card-task-hot","false","0","25","1055","1055","0","test","10","4","1","30","250","120","false","rigged_win","","","",""
"1063","","pre_stim","single-stim-button","168","275718","0.0-10.4-0.4","columbia-card-task-hot","false","0","2","1063","1063","0","test","10","5","1","30","250","150","false","rigged_win","","","",""
"767","","pre_stim","single-stim-button","169","276486","0.0-10.5-0.5","columbia-card-task-hot","false","0","10","767","767","0","test","10","6","1","30","250","180","false","rigged_win","","","",""
"1527","","pre_stim","single-stim-button","170","278014","0.0-10.6-0.6","columbia-card-task-hot","false","0","11","1527","1527","0","test","10","7","1","30","250","210","false","rigged_win","","","",""
"655","","pre_stim","single-stim-button","171","278670","0.0-10.7-0.7","columbia-card-task-hot","false","0","3","655","655","0","test","10","8","1","30","250","240","false","rigged_win","","","",""
"550","","pre_stim","single-stim-button","172","279222","0.0-10.8-0.8","columbia-card-task-hot","false","0","4","550","550","0","test","10","9","1","30","250","270","false","rigged_win","","","",""
"1335","","pre_stim","single-stim-button","173","280558","0.0-10.9-0.9","columbia-card-task-hot","false","0","18","1335","1335","0","test","10","10","1","30","250","300","false","rigged_win","","","",""
"855","","pre_stim","single-stim-button","174","281414","0.0-10.10-0.10","columbia-card-task-hot","false","0","26","855","855","0","test","10","11","1","30","250","330","false","rigged_win","","","",""
"575","","pre_stim","single-stim-button","175","281991","0.0-10.11-0.11","columbia-card-task-hot","false","0","19","575","575","0","test","10","12","1","30","250","360","false","rigged_win","","","",""
"1518","","pre_stim","single-stim-button","176","283510","0.0-10.12-0.12","columbia-card-task-hot","false","0","8","1518","1518","0","test","10","13","1","30","250","390","false","rigged_win","","","",""
"463","","pre_stim","single-stim-button","177","283974","0.0-10.13-0.13","columbia-card-task-hot","false","0","7","463","463","0","test","10","14","1","30","250","420","false","rigged_win","","","",""
"663","","pre_stim","single-stim-button","178","284639","0.0-10.14-0.14","columbia-card-task-hot","false","0","6","663","663","0","test","10","15","1","30","250","450","false","rigged_win","","","",""
"510","","pre_stim","single-stim-button","179","285150","0.0-10.15-0.15","columbia-card-task-hot","false","0","5","510","510","0","test","10","16","1","30","250","480","false","rigged_win","","","",""
"895","","pre_stim","single-stim-button","180","286047","0.0-10.16-0.16","columbia-card-task-hot","false","0","13","895","895","0","test","10","17","1","30","250","510","false","rigged_win","","","",""
"446","","pre_stim","single-stim-button","181","286494","0.0-10.17-0.17","columbia-card-task-hot","false","0","12","446","446","0","test","10","18","1","30","250","540","false","rigged_win","","","",""
"1079","","pre_stim","single-stim-button","182","287575","0.0-10.18-0.18","columbia-card-task-hot","false","0","16","1079","1079","0","test","10","19","1","30","250","570","false","rigged_win","","","",""
"694","","pre_stim","single-stim-button","183","288270","0.0-10.19-0.19","columbia-card-task-hot","false","0","15","694","694","0","test","10","20","1","30","250","600","false","rigged_win","","","",""
"535","","pre_stim","single-stim-button","184","288806","0.0-10.20-0.20","columbia-card-task-hot","false","0","14","535","535","0","test","10","21","1","30","250","630","false","rigged_win","","","",""
"911","","pre_stim","single-stim-button","185","289719","0.0-10.21-0.21","columbia-card-task-hot","false","0","20","911","911","0","test","10","22","1","30","250","660","false","rigged_win","","","",""
"526","","pre_stim","single-stim-button","186","290247","0.0-10.22-0.22","columbia-card-task-hot","false","0","27","526","526","0","test","10","23","1","30","250","690","false","rigged_win","","","",""
"398","","pre_stim","single-stim-button","187","290646","0.0-10.23-0.23","columbia-card-task-hot","false","0","28","398","398","0","test","10","24","1","30","250","720","false","rigged_win","","","",""
"799","","pre_stim","single-stim-button","188","291446","0.0-10.24-0.24","columbia-card-task-hot","false","0","21","799","799","0","test","10","25","1","30","250","750","false","rigged_win","","","",""
"1183","","pre_stim","single-stim-button","189","292630","0.0-10.25-0.25","columbia-card-task-hot","false","0","32","1183","1183","0","test","10","26","1","30","250","780","false","rigged_win","","","",""
"910","","pre_stim","single-stim-button","190","293542","0.0-10.26-0.26","columbia-card-task-hot","false","0","24","910","910","0","test","10","27","1","30","250","810","false","rigged_win","","","",""
"831","","pre_stim","single-stim-button","191","294375","0.0-10.27-0.27","columbia-card-task-hot","false","0","31","831","831","0","test","10","28","1","30","250","840","false","rigged_win","","","",""
"1822","","pre_stim","single-stim-button","192","296198","0.0-10.28-0.28","columbia-card-task-hot","false","0","turnButton","1822","1822","0","test","10","28","1","30","250","840","false","rigged_win","","","",""
"3406","","pre_stim","single-stim-button","193","299606","0.0-10.29-0.29","columbia-card-task-hot","false","0","collectButton","3406","3406","0","test","10","29","1","30","250","840","false","rigged_win","","","",""
"6711","","pre_stim","single-stim-button","194","306319","0.0-11.0-0.0","columbia-card-task-hot","false","0","1","6711","6711","0","test","11","1","1","10","250","10","false","rigged_win","","","",""
"679","","pre_stim","single-stim-button","195","306998","0.0-11.1-0.1","columbia-card-task-hot","false","0","9","679","679","0","test","11","2","1","10","250","20","false","rigged_win","","","",""
"734","","pre_stim","single-stim-button","196","307734","0.0-11.2-0.2","columbia-card-task-hot","false","0","17","734","734","0","test","11","3","1","10","250","30","false","rigged_win","","","",""
"1080","","pre_stim","single-stim-button","197","308814","0.0-11.3-0.3","columbia-card-task-hot","false","0","25","1080","1080","0","test","11","4","1","10","250","40","false","rigged_win","","","",""
"959","","pre_stim","single-stim-button","198","309775","0.0-11.4-0.4","columbia-card-task-hot","false","0","26","959","959","0","test","11","5","1","10","250","50","false","rigged_win","","","",""
"662","","pre_stim","single-stim-button","199","310439","0.0-11.5-0.5","columbia-card-task-hot","false","0","27","662","662","0","test","11","6","1","10","250","60","false","rigged_win","","","",""
"862","","pre_stim","single-stim-button","200","311302","0.0-11.6-0.6","columbia-card-task-hot","false","0","28","862","862","0","test","11","7","1","10","250","70","false","rigged_win","","","",""
"791","","pre_stim","single-stim-button","201","312095","0.0-11.7-0.7","columbia-card-task-hot","false","0","18","791","791","0","test","11","8","1","10","250","80","false","rigged_win","","","",""
"886","","pre_stim","single-stim-button","202","312983","0.0-11.8-0.8","columbia-card-task-hot","false","0","10","886","886","0","test","11","9","1","10","250","90","false","rigged_win","","","",""
"814","","pre_stim","single-stim-button","203","313799","0.0-11.9-0.9","columbia-card-task-hot","false","0","2","814","814","0","test","11","10","1","10","250","100","false","rigged_win","","","",""
"902","","pre_stim","single-stim-button","204","314702","0.0-11.10-0.10","columbia-card-task-hot","false","0","3","902","902","0","test","11","11","1","10","250","110","false","rigged_win","","","",""
"903","","pre_stim","single-stim-button","205","315606","0.0-11.11-0.11","columbia-card-task-hot","false","0","29","903","903","0","test","11","12","1","10","250","120","false","rigged_win","","","",""
"463","","pre_stim","single-stim-button","206","316071","0.0-11.12-0.12","columbia-card-task-hot","false","0","30","463","463","0","test","11","13","1","10","250","130","false","rigged_win","","","",""
"702","","pre_stim","single-stim-button","207","316774","0.0-11.13-0.13","columbia-card-task-hot","false","0","31","702","702","0","test","11","14","1","10","250","140","false","rigged_win","","","",""
"670","","pre_stim","single-stim-button","208","317447","0.0-11.14-0.14","columbia-card-task-hot","false","0","32","670","670","0","test","11","15","1","10","250","150","false","rigged_win","","","",""
"1326","","pre_stim","single-stim-button","209","318775","0.0-11.15-0.15","columbia-card-task-hot","false","0","4","1326","1326","0","test","11","16","1","10","250","160","false","rigged_win","","","",""
"614","","pre_stim","single-stim-button","210","319391","0.0-11.16-0.16","columbia-card-task-hot","false","0","5","614","614","0","test","11","17","1","10","250","170","false","rigged_win","","","",""
"806","","pre_stim","single-stim-button","211","320199","0.0-11.17-0.17","columbia-card-task-hot","false","0","6","806","806","0","test","11","18","1","10","250","180","false","rigged_win","","","",""
"806","","pre_stim","single-stim-button","212","321007","0.0-11.18-0.18","columbia-card-task-hot","false","0","7","806","806","0","test","11","19","1","10","250","190","false","rigged_win","","","",""
"982","","pre_stim","single-stim-button","213","321991","0.0-11.19-0.19","columbia-card-task-hot","false","0","8","982","982","0","test","11","20","1","10","250","200","false","rigged_win","","","",""
"950","","pre_stim","single-stim-button","214","322943","0.0-11.20-0.20","columbia-card-task-hot","false","0","11","950","950","0","test","11","21","1","10","250","210","false","rigged_win","","","",""
"590","","pre_stim","single-stim-button","215","323535","0.0-11.21-0.21","columbia-card-task-hot","false","0","12","590","590","0","test","11","22","1","10","250","220","false","rigged_win","","","",""
"598","","pre_stim","single-stim-button","216","324135","0.0-11.22-0.22","columbia-card-task-hot","false","0","19","598","598","0","test","11","23","1","10","250","230","false","rigged_win","","","",""
"670","","pre_stim","single-stim-button","217","324807","0.0-11.23-0.23","columbia-card-task-hot","false","0","20","670","670","0","test","11","24","1","10","250","240","false","rigged_win","","","",""
"4198","","pre_stim","single-stim-button","218","329007","0.0-11.24-0.24","columbia-card-task-hot","false","0","13","4198","4198","0","test","11","25","1","10","250","250","false","rigged_win","","","",""
"854","","pre_stim","single-stim-button","219","329863","0.0-11.25-0.25","columbia-card-task-hot","false","0","21","854","854","0","test","11","26","1","10","250","260","false","rigged_win","","","",""
"1166","","pre_stim","single-stim-button","220","331031","0.0-11.26-0.26","columbia-card-task-hot","false","0","16","1166","1166","0","test","11","27","1","10","250","270","false","rigged_win","","","",""
"1310","","pre_stim","single-stim-button","221","332342","0.0-11.27-0.27","columbia-card-task-hot","false","0","turnButton","1310","1310","0","test","11","27","1","10","250","270","false","rigged_win","","","",""
"3679","","pre_stim","single-stim-button","222","336023","0.0-11.28-0.28","columbia-card-task-hot","false","0","collectButton","3679","3679","0","test","11","28","1","10","250","270","false","rigged_win","","","",""
"7287","","pre_stim","single-stim-button","223","343311","0.0-12.0-0.0","columbia-card-task-hot","false","0","8","7287","7287","0","test","12","1","1","30","750","30","false","rigged_win","","","",""
"950","","pre_stim","single-stim-button","224","344263","0.0-12.1-0.1","columbia-card-task-hot","false","0","32","950","950","0","test","12","2","1","30","750","60","false","rigged_win","","","",""
"950","","pre_stim","single-stim-button","225","345215","0.0-12.2-0.2","columbia-card-task-hot","false","0","1","950","950","0","test","12","3","1","30","750","90","false","rigged_win","","","",""
"646","","pre_stim","single-stim-button","226","345863","0.0-12.3-0.3","columbia-card-task-hot","false","0","25","646","646","0","test","12","4","1","30","750","120","false","rigged_win","","","",""
"1374","","pre_stim","single-stim-button","227","347239","0.0-12.4-0.4","columbia-card-task-hot","false","0","3","1374","1374","0","test","12","5","1","30","750","150","false","rigged_win","","","",""
"791","","pre_stim","single-stim-button","228","348031","0.0-12.5-0.5","columbia-card-task-hot","false","0","5","791","791","0","test","12","6","1","30","750","180","false","rigged_win","","","",""
"646","","pre_stim","single-stim-button","229","348679","0.0-12.6-0.6","columbia-card-task-hot","false","0","6","646","646","0","test","12","7","1","30","750","210","false","rigged_win","","","",""
"1270","","pre_stim","single-stim-button","230","349951","0.0-12.7-0.7","columbia-card-task-hot","false","0","10","1270","1270","0","test","12","8","1","30","750","240","false","rigged_win","","","",""
"703","","pre_stim","single-stim-button","231","350655","0.0-12.8-0.8","columbia-card-task-hot","false","0","12","703","703","0","test","12","9","1","30","750","270","false","rigged_win","","","",""
"838","","pre_stim","single-stim-button","232","351495","0.0-12.9-0.9","columbia-card-task-hot","false","0","15","838","838","0","test","12","10","1","30","750","300","false","rigged_win","","","",""
"1846","","pre_stim","single-stim-button","233","353343","0.0-12.10-0.10","columbia-card-task-hot","false","0","23","1846","1846","0","test","12","11","1","30","750","330","false","rigged_win","","","",""
"783","","pre_stim","single-stim-button","234","354127","0.0-12.11-0.11","columbia-card-task-hot","false","0","30","783","783","0","test","12","12","1","30","750","360","false","rigged_win","","","",""
"822","","pre_stim","single-stim-button","235","354951","0.0-12.12-0.12","columbia-card-task-hot","false","0","21","822","822","0","test","12","13","1","30","750","390","false","rigged_win","","","",""
"838","","pre_stim","single-stim-button","236","355791","0.0-12.13-0.13","columbia-card-task-hot","false","0","28","838","838","0","test","12","14","1","30","750","420","false","rigged_win","","","",""
"582","","pre_stim","single-stim-button","237","356375","0.0-12.14-0.14","columbia-card-task-hot","false","0","19","582","582","0","test","12","15","1","30","750","450","false","rigged_win","","","",""
"1334","","pre_stim","single-stim-button","238","357711","0.0-12.15-0.15","columbia-card-task-hot","false","0","26","1334","1334","0","test","12","16","1","30","750","480","false","rigged_win","","","",""
"750","","pre_stim","single-stim-button","239","358463","0.0-12.16-0.16","columbia-card-task-hot","false","0","27","750","750","0","test","12","17","1","30","750","510","false","rigged_win","","","",""
"814","","pre_stim","single-stim-button","240","359279","0.0-12.17-0.17","columbia-card-task-hot","false","0","29","814","814","0","test","12","18","1","30","750","540","false","rigged_win","","","",""
"638","","pre_stim","single-stim-button","241","359919","0.0-12.18-0.18","columbia-card-task-hot","false","0","31","638","638","0","test","12","19","1","30","750","570","false","rigged_win","","","",""
"1726","","pre_stim","single-stim-button","242","361647","0.0-12.19-0.19","columbia-card-task-hot","false","0","11","1726","1726","0","test","12","20","1","30","750","600","false","rigged_win","","","",""
"918","","pre_stim","single-stim-button","243","362566","0.0-12.20-0.20","columbia-card-task-hot","false","0","4","918","918","0","test","12","21","1","30","750","630","false","rigged_win","","","",""
"990","","pre_stim","single-stim-button","244","363559","0.0-12.21-0.21","columbia-card-task-hot","false","0","9","990","990","0","test","12","22","1","30","750","660","false","rigged_win","","","",""
"646","","pre_stim","single-stim-button","245","364207","0.0-12.22-0.22","columbia-card-task-hot","false","0","17","646","646","0","test","12","23","1","30","750","690","false","rigged_win","","","",""
"582","","pre_stim","single-stim-button","246","364791","0.0-12.23-0.23","columbia-card-task-hot","false","0","2","582","582","0","test","12","24","1","30","750","720","false","rigged_win","","","",""
"798","","pre_stim","single-stim-button","247","365591","0.0-12.24-0.24","columbia-card-task-hot","false","0","18","798","798","0","test","12","25","1","30","750","750","false","rigged_win","","","",""
"1238","","pre_stim","single-stim-button","248","366831","0.0-12.25-0.25","columbia-card-task-hot","false","0","13","1238","1238","0","test","12","26","1","30","750","780","false","rigged_win","","","",""
"542","","pre_stim","single-stim-button","249","367375","0.0-12.26-0.26","columbia-card-task-hot","false","0","7","542","542","0","test","12","27","1","30","750","810","false","rigged_win","","","",""
"838","","pre_stim","single-stim-button","250","368215","0.0-12.27-0.27","columbia-card-task-hot","false","0","14","838","838","0","test","12","28","1","30","750","840","false","rigged_win","","","",""
"934","","pre_stim","single-stim-button","251","369151","0.0-12.28-0.28","columbia-card-task-hot","false","0","16","934","934","0","test","12","29","1","30","750","870","false","rigged_win","","","",""
"1751","","pre_stim","single-stim-button","252","370903","0.0-12.29-0.29","columbia-card-task-hot","false","0","turnButton","1751","1751","0","test","12","29","1","30","750","870","false","rigged_win","","","",""
"2949","","pre_stim","single-stim-button","253","373855","0.0-12.30-0.30","columbia-card-task-hot","false","0","collectButton","2949","2949","0","test","12","30","1","30","750","870","false","rigged_win","","","",""
"6454","","pre_stim","single-stim-button","254","380311","0.0-13.0-0.0","columbia-card-task-hot","false","0","1","6454","6454","0","test","13","1","3","10","750","10","false","rigged_win","","","",""
"1374","","pre_stim","single-stim-button","255","381686","0.0-13.1-0.1","columbia-card-task-hot","false","0","2","1374","1374","0","test","13","2","3","10","750","20","false","rigged_win","","","",""
"1078","","pre_stim","single-stim-button","256","382766","0.0-13.2-0.2","columbia-card-task-hot","false","0","8","1078","1078","0","test","13","3","3","10","750","30","false","rigged_win","","","",""
"839","","pre_stim","single-stim-button","257","383606","0.0-13.3-0.3","columbia-card-task-hot","false","0","32","839","839","0","test","13","4","3","10","750","40","false","rigged_win","","","",""
"950","","pre_stim","single-stim-button","258","384558","0.0-13.4-0.4","columbia-card-task-hot","false","0","25","950","950","0","test","13","5","3","10","750","50","false","rigged_win","","","",""
"1231","","pre_stim","single-stim-button","259","385790","0.0-13.5-0.5","columbia-card-task-hot","false","0","9","1231","1231","0","test","13","6","3","10","750","60","false","rigged_win","","","",""
"566","","pre_stim","single-stim-button","260","386358","0.0-13.6-0.6","columbia-card-task-hot","false","0","17","566","566","0","test","13","7","3","10","750","70","false","rigged_win","","","",""
"1181","","pre_stim","single-stim-button","261","387542","0.0-13.7-0.7","columbia-card-task-hot","false","0","24","1181","1181","0","test","13","8","3","10","750","80","false","rigged_win","","","",""
"695","","pre_stim","single-stim-button","262","388239","0.0-13.8-0.8","columbia-card-task-hot","false","0","16","695","695","0","test","13","9","3","10","750","90","false","rigged_win","","","",""
"1774","","pre_stim","single-stim-button","263","390014","0.0-13.9-0.9","columbia-card-task-hot","false","0","26","1774","1774","0","test","13","10","3","10","750","100","false","rigged_win","","","",""
"1095","","pre_stim","single-stim-button","264","391110","0.0-13.10-0.10","columbia-card-task-hot","false","0","19","1095","1095","0","test","13","11","3","10","750","110","false","rigged_win","","","",""
"1021","","pre_stim","single-stim-button","265","392134","0.0-13.11-0.11","columbia-card-task-hot","false","0","12","1021","1021","0","test","13","12","3","10","750","120","false","rigged_win","","","",""
"1015","","pre_stim","single-stim-button","266","393150","0.0-13.12-0.12","columbia-card-task-hot","false","0","5","1015","1015","0","test","13","13","3","10","750","130","false","rigged_win","","","",""
"1190","","pre_stim","single-stim-button","267","394342","0.0-13.13-0.13","columbia-card-task-hot","false","0","14","1190","1190","0","test","13","14","3","10","750","140","false","rigged_win","","","",""
"575","","pre_stim","single-stim-button","268","394918","0.0-13.14-0.14","columbia-card-task-hot","false","0","23","575","575","0","test","13","15","3","10","750","150","false","rigged_win","","","",""
"1630","","pre_stim","single-stim-button","269","396550","0.0-13.15-0.15","columbia-card-task-hot","false","0","7","1630","1630","0","test","13","16","3","10","750","160","false","rigged_win","","","",""
"1078","","pre_stim","single-stim-button","270","397630","0.0-13.16-0.16","columbia-card-task-hot","false","0","21","1078","1078","0","test","13","17","3","10","750","170","false","rigged_win","","","",""
"910","","pre_stim","single-stim-button","271","398542","0.0-13.17-0.17","columbia-card-task-hot","false","0","30","910","910","0","test","13","18","3","10","750","180","false","rigged_win","","","",""
"847","","pre_stim","single-stim-button","272","399390","0.0-13.18-0.18","columbia-card-task-hot","false","0","28","847","847","0","test","13","19","3","10","750","190","false","rigged_win","","","",""
"1318","","pre_stim","single-stim-button","273","400710","0.0-13.19-0.19","columbia-card-task-hot","false","0","10","1318","1318","0","test","13","20","3","10","750","200","false","rigged_win","","","",""
"1302","","pre_stim","single-stim-button","274","402014","0.0-13.20-0.20","columbia-card-task-hot","false","0","3","1302","1302","0","test","13","21","3","10","750","210","false","rigged_win","","","",""
"3486","","pre_stim","single-stim-button","275","405502","0.0-13.21-0.21","columbia-card-task-hot","false","0","4","3486","3486","0","test","13","22","3","10","750","220","false","rigged_win","","","",""
"1374","","pre_stim","single-stim-button","276","406879","0.0-13.22-0.22","columbia-card-task-hot","false","0","6","1374","1374","0","test","13","23","3","10","750","230","false","rigged_win","","","",""
"1629","","pre_stim","single-stim-button","277","408510","0.0-13.23-0.23","columbia-card-task-hot","false","0","18","1629","1629","0","test","13","24","3","10","750","240","false","rigged_win","","","",""
"1903","","pre_stim","single-stim-button","278","410414","0.0-13.24-0.24","columbia-card-task-hot","false","0","31","1903","1903","0","test","13","25","3","10","750","250","false","rigged_win","","","",""
"1133","","pre_stim","single-stim-button","279","411550","0.0-13.25-0.25","columbia-card-task-hot","false","0","turnButton","1133","1133","0","test","13","25","3","10","750","250","false","rigged_win","","","",""
"2575","","pre_stim","single-stim-button","280","414126","0.0-13.26-0.26","columbia-card-task-hot","false","0","collectButton","2575","2575","0","test","13","26","3","10","750","250","false","rigged_win","","","",""
"7711","","pre_stim","single-stim-button","281","421838","0.0-14.0-0.0","columbia-card-task-hot","false","0","1","7711","7711","0","test","14","1","1","10","750","10","false","rigged_win","","","",""
"1150","","pre_stim","single-stim-button","282","422990","0.0-14.1-0.1","columbia-card-task-hot","false","0","2","1150","1150","0","test","14","2","1","10","750","20","false","rigged_win","","","",""
"550","","pre_stim","single-stim-button","283","423542","0.0-14.2-0.2","columbia-card-task-hot","false","0","3","550","550","0","test","14","3","1","10","750","30","false","rigged_win","","","",""
"518","","pre_stim","single-stim-button","284","424062","0.0-14.3-0.3","columbia-card-task-hot","false","0","4","518","518","0","test","14","4","1","10","750","40","false","rigged_win","","","",""
"463","","pre_stim","single-stim-button","285","424526","0.0-14.4-0.4","columbia-card-task-hot","false","0","5","463","463","0","test","14","5","1","10","750","50","false","rigged_win","","","",""
"733","","pre_stim","single-stim-button","286","425262","0.0-14.5-0.5","columbia-card-task-hot","false","0","6","733","733","0","test","14","6","1","10","750","60","false","rigged_win","","","",""
"566","","pre_stim","single-stim-button","287","425830","0.0-14.6-0.6","columbia-card-task-hot","false","0","7","566","566","0","test","14","7","1","10","750","70","false","rigged_win","","","",""
"597","","pre_stim","single-stim-button","288","426430","0.0-14.7-0.7","columbia-card-task-hot","false","0","8","597","597","0","test","14","8","1","10","750","80","false","rigged_win","","","",""
"693","","pre_stim","single-stim-button","289","427126","0.0-14.8-0.8","columbia-card-task-hot","false","0","16","693","693","0","test","14","9","1","10","750","90","false","rigged_win","","","",""
"567","","pre_stim","single-stim-button","290","427694","0.0-14.9-0.9","columbia-card-task-hot","false","0","24","567","567","0","test","14","10","1","10","750","100","false","rigged_win","","","",""
"517","","pre_stim","single-stim-button","291","428214","0.0-14.10-0.10","columbia-card-task-hot","false","0","32","517","517","0","test","14","11","1","10","750","110","false","rigged_win","","","",""
"758","","pre_stim","single-stim-button","292","428974","0.0-14.11-0.11","columbia-card-task-hot","false","0","31","758","758","0","test","14","12","1","10","750","120","false","rigged_win","","","",""
"575","","pre_stim","single-stim-button","293","429550","0.0-14.12-0.12","columbia-card-task-hot","false","0","30","575","575","0","test","14","13","1","10","750","130","false","rigged_win","","","",""
"757","","pre_stim","single-stim-button","294","430310","0.0-14.13-0.13","columbia-card-task-hot","false","0","29","757","757","0","test","14","14","1","10","750","140","false","rigged_win","","","",""
"991","","pre_stim","single-stim-button","295","431302","0.0-14.14-0.14","columbia-card-task-hot","false","0","28","991","991","0","test","14","15","1","10","750","150","false","rigged_win","","","",""
"694","","pre_stim","single-stim-button","296","431998","0.0-14.15-0.15","columbia-card-task-hot","false","0","27","694","694","0","test","14","16","1","10","750","160","false","rigged_win","","","",""
"733","","pre_stim","single-stim-button","297","432734","0.0-14.16-0.16","columbia-card-task-hot","false","0","26","733","733","0","test","14","17","1","10","750","170","false","rigged_win","","","",""
"519","","pre_stim","single-stim-button","298","433254","0.0-14.17-0.17","columbia-card-task-hot","false","0","25","519","519","0","test","14","18","1","10","750","180","false","rigged_win","","","",""
"679","","pre_stim","single-stim-button","299","433934","0.0-14.18-0.18","columbia-card-task-hot","false","0","17","679","679","0","test","14","19","1","10","750","190","false","rigged_win","","","",""
"1095","","pre_stim","single-stim-button","300","435030","0.0-14.19-0.19","columbia-card-task-hot","false","0","9","1095","1095","0","test","14","20","1","10","750","200","false","rigged_win","","","",""
"2247","","pre_stim","single-stim-button","301","437278","0.0-14.20-0.20","columbia-card-task-hot","false","0","10","2247","2247","0","test","14","21","1","10","750","210","false","rigged_win","","","",""
"638","","pre_stim","single-stim-button","302","437918","0.0-14.21-0.21","columbia-card-task-hot","false","0","18","638","638","0","test","14","22","1","10","750","220","false","rigged_win","","","",""
"1478","","pre_stim","single-stim-button","303","439397","0.0-14.22-0.22","columbia-card-task-hot","false","0","11","1478","1478","0","test","14","23","1","10","750","230","false","rigged_win","","","",""
"758","","pre_stim","single-stim-button","304","440157","0.0-14.23-0.23","columbia-card-task-hot","false","0","20","758","758","0","test","14","24","1","10","750","240","false","rigged_win","","","",""
"1302","","pre_stim","single-stim-button","305","441461","0.0-14.24-0.24","columbia-card-task-hot","false","0","15","1302","1302","0","test","14","25","1","10","750","250","false","rigged_win","","","",""
"542","","pre_stim","single-stim-button","306","442005","0.0-14.25-0.25","columbia-card-task-hot","false","0","23","542","542","0","test","14","26","1","10","750","260","false","rigged_win","","","",""
"702","","pre_stim","single-stim-button","307","442709","0.0-14.26-0.26","columbia-card-task-hot","false","0","19","702","702","0","test","14","27","1","10","750","270","false","rigged_win","","","",""
"2254","","pre_stim","single-stim-button","308","444965","0.0-14.27-0.27","columbia-card-task-hot","false","0","turnButton","2254","2254","0","test","14","27","1","10","750","270","false","rigged_win","","","",""
"3086","","pre_stim","single-stim-button","309","448053","0.0-14.28-0.28","columbia-card-task-hot","false","0","collectButton","3086","3086","0","test","14","28","1","10","750","270","false","rigged_win","","","",""
"6966","","pre_stim","single-stim-button","310","455021","0.0-15.0-0.0","columbia-card-task-hot","false","0","1","6966","6966","0","test","15","1","3","10","250","10","false","rigged_win","","","",""
"1558","","pre_stim","single-stim-button","311","456581","0.0-15.1-0.1","columbia-card-task-hot","false","0","2","1558","1558","0","test","15","2","3","10","250","20","false","rigged_win","","","",""
"1270","","pre_stim","single-stim-button","312","457853","0.0-15.2-0.2","columbia-card-task-hot","false","0","8","1270","1270","0","test","15","3","3","10","250","30","false","rigged_win","","","",""
"774","","pre_stim","single-stim-button","313","458629","0.0-15.3-0.3","columbia-card-task-hot","false","0","32","774","774","0","test","15","4","3","10","250","40","false","rigged_win","","","",""
"862","","pre_stim","single-stim-button","314","459493","0.0-15.4-0.4","columbia-card-task-hot","false","0","25","862","862","0","test","15","5","3","10","250","50","false","rigged_win","","","",""
"366","","pre_stim","single-stim-button","315","459861","0.0-15.5-0.5","columbia-card-task-hot","false","0","26","366","366","0","test","15","6","3","10","250","60","false","rigged_win","","","",""
"582","","pre_stim","single-stim-button","316","460445","0.0-15.6-0.6","columbia-card-task-hot","false","0","17","582","582","0","test","15","7","3","10","250","70","false","rigged_win","","","",""
"886","","pre_stim","single-stim-button","317","461333","0.0-15.7-0.7","columbia-card-task-hot","false","0","31","886","886","0","test","15","8","3","10","250","80","false","rigged_win","","","",""
"502","","pre_stim","single-stim-button","318","461837","0.0-15.8-0.8","columbia-card-task-hot","false","0","24","502","502","0","test","15","9","3","10","250","90","false","rigged_win","","","",""
"678","","pre_stim","single-stim-button","319","462517","0.0-15.9-0.9","columbia-card-task-hot","false","0","16","678","678","0","test","15","10","3","10","250","100","false","rigged_win","","","",""
"357","","pre_stim","single-stim-button","320","462877","0.0-15.10-0.10","columbia-card-task-hot","false","0","7","357","357","0","test","15","11","3","10","250","110","false","rigged_win","","","",""
"927","","pre_stim","single-stim-button","321","463805","0.0-15.11-0.11","columbia-card-task-hot","false","0","9","927","927","0","test","15","12","3","10","250","120","false","rigged_win","","","",""
"1863","","pre_stim","single-stim-button","322","465669","0.0-15.12-0.12","columbia-card-task-hot","false","0","11","1863","1863","0","test","15","13","3","10","250","130","false","rigged_win","","","",""
"830","","pre_stim","single-stim-button","323","466501","0.0-15.13-0.13","columbia-card-task-hot","false","0","20","830","830","0","test","15","14","3","10","250","140","false","rigged_win","","","",""
"726","","pre_stim","single-stim-button","324","467229","0.0-15.14-0.14","columbia-card-task-hot","false","0","29","726","726","0","test","15","15","3","10","250","150","false","rigged_win","","","",""
"743","","pre_stim","single-stim-button","325","467973","0.0-15.15-0.15","columbia-card-task-hot","false","0","27","743","743","0","test","15","16","3","10","250","160","false","rigged_win","","","",""
"1110","","pre_stim","single-stim-button","326","469085","0.0-15.16-0.16","columbia-card-task-hot","false","0","22","1110","1110","0","test","15","17","3","10","250","170","false","rigged_win","","","",""
"830","","pre_stim","single-stim-button","327","469917","0.0-15.17-0.17","columbia-card-task-hot","false","0","13","830","830","0","test","15","18","3","10","250","180","false","rigged_win","","","",""
"934","","pre_stim","single-stim-button","328","470853","0.0-15.18-0.18","columbia-card-task-hot","false","0","4","934","934","0","test","15","19","3","10","250","190","false","rigged_win","","","",""
"686","","pre_stim","single-stim-button","329","471541","0.0-15.19-0.19","columbia-card-task-hot","false","0","6","686","686","0","test","15","20","3","10","250","200","false","rigged_win","","","",""
"1078","","pre_stim","single-stim-button","330","472621","0.0-15.20-0.20","columbia-card-task-hot","false","0","15","1078","1078","0","test","15","21","3","10","250","210","false","rigged_win","","","",""
"446","","pre_stim","single-stim-button","331","473069","0.0-15.21-0.21","columbia-card-task-hot","false","0","23","446","446","0","test","15","22","3","10","250","220","false","rigged_win","","","",""
"950","","pre_stim","single-stim-button","332","474021","0.0-15.22-0.22","columbia-card-task-hot","false","0","10","950","950","0","test","15","23","3","10","250","230","false","rigged_win","","","",""
"383","","pre_stim","single-stim-button","333","474405","0.0-15.23-0.23","columbia-card-task-hot","false","0","18","383","383","0","test","15","24","3","10","250","240","false","rigged_win","","","",""
"1351","","pre_stim","single-stim-button","334","475757","0.0-15.24-0.24","columbia-card-task-hot","false","0","3","1351","1351","0","test","15","25","3","10","250","250","false","rigged_win","","","",""
"2526","","pre_stim","single-stim-button","335","478285","0.0-15.25-0.25","columbia-card-task-hot","false","0","5","2526","2526","0","test","15","26","3","10","250","260","false","rigged_win","","","",""
"1974","","pre_stim","single-stim-button","336","480261","0.0-15.26-0.26","columbia-card-task-hot","false","0","turnButton","1974","1974","0","test","15","26","3","10","250","260","false","rigged_win","","","",""
"3350","","pre_stim","single-stim-button","337","483613","0.0-15.27-0.27","columbia-card-task-hot","false","0","collectButton","3350","3350","0","test","15","27","3","10","250","260","false","rigged_win","","","",""
"6750","","pre_stim","single-stim-button","338","490365","0.0-16.0-0.0","columbia-card-task-hot","false","0","8","6750","6750","0","test","16","1","1","30","750","30","false","rigged_loss","","","",""
"902","","pre_stim","single-stim-button","339","491269","0.0-16.1-0.1","columbia-card-task-hot","false","0","16","902","902","0","test","16","2","1","30","750","60","false","rigged_loss","","","",""
"1166","","pre_stim","single-stim-button","340","492437","0.0-16.2-0.2","columbia-card-task-hot","false","0","24","1166","1166","0","test","16","3","1","30","750","90","false","rigged_loss","","","",""
"1294","","pre_stim","single-stim-button","341","493733","0.0-16.3-0.3","columbia-card-task-hot","false","0","32","1294","1294","0","test","16","4","1","30","750","120","false","rigged_loss","","","",""
"510","","pre_stim","single-stim-button","342","494246","0.0-16.4-0.4","columbia-card-task-hot","false","0","31","510","510","0","test","16","5","1","30","750","-630","true","rigged_loss","","","",""
"3420","","pre_stim","single-stim-button","343","497669","0.0-16.5-0.5","columbia-card-task-hot","false","0","collectButton","3420","3420","0","test","16","6","1","30","750","-630","true","rigged_loss","","","",""
"6134","","pre_stim","single-stim-button","344","503805","0.0-17.0-0.0","columbia-card-task-hot","false","0","1","6134","6134","0","test","17","1","3","30","250","30","false","rigged_win","","","",""
"781","","pre_stim","single-stim-button","345","504589","0.0-17.1-0.1","columbia-card-task-hot","false","0","2","781","781","0","test","17","2","3","30","250","60","false","rigged_win","","","",""
"863","","pre_stim","single-stim-button","346","505453","0.0-17.2-0.2","columbia-card-task-hot","false","0","3","863","863","0","test","17","3","3","30","250","90","false","rigged_win","","","",""
"709","","pre_stim","single-stim-button","347","506165","0.0-17.3-0.3","columbia-card-task-hot","false","0","4","709","709","0","test","17","4","3","30","250","120","false","rigged_win","","","",""
"1607","","pre_stim","single-stim-button","348","507773","0.0-17.4-0.4","columbia-card-task-hot","false","0","9","1607","1607","0","test","17","5","3","30","250","150","false","rigged_win","","","",""
"550","","pre_stim","single-stim-button","349","508325","0.0-17.5-0.5","columbia-card-task-hot","false","0","17","550","550","0","test","17","6","3","30","250","180","false","rigged_win","","","",""
"893","","pre_stim","single-stim-button","350","509221","0.0-17.6-0.6","columbia-card-task-hot","false","0","25","893","893","0","test","17","7","3","30","250","210","false","rigged_win","","","",""
"1215","","pre_stim","single-stim-button","351","510437","0.0-17.7-0.7","columbia-card-task-hot","false","0","32","1215","1215","0","test","17","8","3","30","250","240","false","rigged_win","","","",""
"1038","","pre_stim","single-stim-button","352","511477","0.0-17.8-0.8","columbia-card-task-hot","false","0","8","1038","1038","0","test","17","9","3","30","250","270","false","rigged_win","","","",""
"581","","pre_stim","single-stim-button","353","512061","0.0-17.9-0.9","columbia-card-task-hot","false","0","7","581","581","0","test","17","10","3","30","250","300","false","rigged_win","","","",""
"1118","","pre_stim","single-stim-button","354","513181","0.0-17.10-0.10","columbia-card-task-hot","false","0","16","1118","1118","0","test","17","11","3","30","250","330","false","rigged_win","","","",""
"413","","pre_stim","single-stim-button","355","513597","0.0-17.11-0.11","columbia-card-task-hot","false","0","24","413","413","0","test","17","12","3","30","250","360","false","rigged_win","","","",""
"1461","","pre_stim","single-stim-button","356","515061","0.0-17.12-0.12","columbia-card-task-hot","false","0","27","1461","1461","0","test","17","13","3","30","250","390","false","rigged_win","","","",""
"902","","pre_stim","single-stim-button","357","515965","0.0-17.13-0.13","columbia-card-task-hot","false","0","29","902","902","0","test","17","14","3","30","250","420","false","rigged_win","","","",""
"989","","pre_stim","single-stim-button","358","516957","0.0-17.14-0.14","columbia-card-task-hot","false","0","31","989","989","0","test","17","15","3","30","250","450","false","rigged_win","","","",""
"1391","","pre_stim","single-stim-button","359","518349","0.0-17.15-0.15","columbia-card-task-hot","false","0","6","1391","1391","0","test","17","16","3","30","250","480","false","rigged_win","","","",""
"510","","pre_stim","single-stim-button","360","518861","0.0-17.16-0.16","columbia-card-task-hot","false","0","5","510","510","0","test","17","17","3","30","250","510","false","rigged_win","","","",""
"1190","","pre_stim","single-stim-button","361","520053","0.0-17.17-0.17","columbia-card-task-hot","false","0","28","1190","1190","0","test","17","18","3","30","250","540","false","rigged_win","","","",""
"430","","pre_stim","single-stim-button","362","520485","0.0-17.18-0.18","columbia-card-task-hot","false","0","30","430","430","0","test","17","19","3","30","250","570","false","rigged_win","","","",""
"734","","pre_stim","single-stim-button","363","521221","0.0-17.19-0.19","columbia-card-task-hot","false","0","26","734","734","0","test","17","20","3","30","250","600","false","rigged_win","","","",""
"879","","pre_stim","single-stim-button","364","522101","0.0-17.20-0.20","columbia-card-task-hot","false","0","18","879","879","0","test","17","21","3","30","250","630","false","rigged_win","","","",""
"1014","","pre_stim","single-stim-button","365","523117","0.0-17.21-0.21","columbia-card-task-hot","false","0","11","1014","1014","0","test","17","22","3","30","250","660","false","rigged_win","","","",""
"958","","pre_stim","single-stim-button","366","524077","0.0-17.22-0.22","columbia-card-task-hot","false","0","20","958","958","0","test","17","23","3","30","250","690","false","rigged_win","","","",""
"645","","pre_stim","single-stim-button","367","524725","0.0-17.23-0.23","columbia-card-task-hot","false","0","13","645","645","0","test","17","24","3","30","250","720","false","rigged_win","","","",""
"909","","pre_stim","single-stim-button","368","525637","0.0-17.24-0.24","columbia-card-task-hot","false","0","22","909","909","0","test","17","25","3","30","250","750","false","rigged_win","","","",""
"1053","","pre_stim","single-stim-button","369","526693","0.0-17.25-0.25","columbia-card-task-hot","false","0","15","1053","1053","0","test","17","26","3","30","250","780","false","rigged_win","","","",""
"3942","","pre_stim","single-stim-button","370","530637","0.0-17.26-0.26","columbia-card-task-hot","false","0","turnButton","3942","3942","0","test","17","26","3","30","250","780","false","rigged_win","","","",""
"3174","","pre_stim","single-stim-button","371","533813","0.0-17.27-0.27","columbia-card-task-hot","false","0","collectButton","3174","3174","0","test","17","27","3","30","250","780","false","rigged_win","","","",""
"6709","","pre_stim","single-stim-button","372","540525","0.0-18.0-0.0","columbia-card-task-hot","false","0","1","6709","6709","0","test","18","1","1","10","750","10","false","rigged_loss","","","",""
"958","","pre_stim","single-stim-button","373","541484","0.0-18.1-0.1","columbia-card-task-hot","false","0","2","958","958","0","test","18","2","1","10","750","20","false","rigged_loss","","","",""
"1246","","pre_stim","single-stim-button","374","542733","0.0-18.2-0.2","columbia-card-task-hot","false","0","9","1246","1246","0","test","18","3","1","10","750","30","false","rigged_loss","","","",""
"1454","","pre_stim","single-stim-button","375","544189","0.0-18.3-0.3","columbia-card-task-hot","false","0","4","1454","1454","0","test","18","4","1","10","750","40","false","rigged_loss","","","",""
"597","","pre_stim","single-stim-button","376","544789","0.0-18.4-0.4","columbia-card-task-hot","false","0","6","597","597","0","test","18","5","1","10","750","50","false","rigged_loss","","","",""
"791","","pre_stim","single-stim-button","377","545581","0.0-18.5-0.5","columbia-card-task-hot","false","0","8","791","791","0","test","18","6","1","10","750","60","false","rigged_loss","","","",""
"1197","","pre_stim","single-stim-button","378","546781","0.0-18.6-0.6","columbia-card-task-hot","false","0","24","1197","1197","0","test","18","7","1","10","750","70","false","rigged_loss","","","",""
"790","","pre_stim","single-stim-button","379","547573","0.0-18.7-0.7","columbia-card-task-hot","false","0","31","790","790","0","test","18","8","1","10","750","80","false","rigged_loss","","","",""
"1622","","pre_stim","single-stim-button","380","549197","0.0-18.8-0.8","columbia-card-task-hot","false","0","32","1622","1622","0","test","18","9","1","10","750","90","false","rigged_loss","","","",""
"654","","pre_stim","single-stim-button","381","549853","0.0-18.9-0.9","columbia-card-task-hot","false","0","16","654","654","0","test","18","10","1","10","750","100","false","rigged_loss","","","",""
"565","","pre_stim","single-stim-button","382","550421","0.0-18.10-0.10","columbia-card-task-hot","false","0","7","565","565","0","test","18","11","1","10","750","-650","true","rigged_loss","","","",""
"5190","","pre_stim","single-stim-button","383","555613","0.0-18.11-0.11","columbia-card-task-hot","false","0","collectButton","5190","5190","0","test","18","12","1","10","750","-650","true","rigged_loss","","","",""
"6534","","pre_stim","single-stim-button","384","562149","0.0-19.0-0.0","columbia-card-task-hot","false","0","25","6534","6534","0","test","19","1","1","30","250","30","false","rigged_win","","","",""
"374","","pre_stim","single-stim-button","385","562526","0.0-19.1-0.1","columbia-card-task-hot","false","0","26","374","374","0","test","19","2","1","30","250","60","false","rigged_win","","","",""
"470","","pre_stim","single-stim-button","386","562998","0.0-19.2-0.2","columbia-card-task-hot","false","0","27","470","470","0","test","19","3","1","30","250","90","false","rigged_win","","","",""
"438","","pre_stim","single-stim-button","387","563437","0.0-19.3-0.3","columbia-card-task-hot","false","0","28","438","438","0","test","19","4","1","30","250","120","false","rigged_win","","","",""
"566","","pre_stim","single-stim-button","388","564006","0.0-19.4-0.4","columbia-card-task-hot","false","0","29","566","566","0","test","19","5","1","30","250","150","false","rigged_win","","","",""
"1190","","pre_stim","single-stim-button","389","565197","0.0-19.5-0.5","columbia-card-task-hot","false","0","30","1190","1190","0","test","19","6","1","30","250","180","false","rigged_win","","","",""
"686","","pre_stim","single-stim-button","390","565885","0.0-19.6-0.6","columbia-card-task-hot","false","0","31","686","686","0","test","19","7","1","30","250","210","false","rigged_win","","","",""
"814","","pre_stim","single-stim-button","391","566701","0.0-19.7-0.7","columbia-card-task-hot","false","0","32","814","814","0","test","19","8","1","30","250","240","false","rigged_win","","","",""
"1014","","pre_stim","single-stim-button","392","567717","0.0-19.8-0.8","columbia-card-task-hot","false","0","24","1014","1014","0","test","19","9","1","30","250","270","false","rigged_win","","","",""
"438","","pre_stim","single-stim-button","393","568157","0.0-19.9-0.9","columbia-card-task-hot","false","0","23","438","438","0","test","19","10","1","30","250","300","false","rigged_win","","","",""
"662","","pre_stim","single-stim-button","394","568821","0.0-19.10-0.10","columbia-card-task-hot","false","0","16","662","662","0","test","19","11","1","30","250","330","false","rigged_win","","","",""
"790","","pre_stim","single-stim-button","395","569613","0.0-19.11-0.11","columbia-card-task-hot","false","0","8","790","790","0","test","19","12","1","30","250","360","false","rigged_win","","","",""
"710","","pre_stim","single-stim-button","396","570326","0.0-19.12-0.12","columbia-card-task-hot","false","0","15","710","710","0","test","19","13","1","30","250","390","false","rigged_win","","","",""
"558","","pre_stim","single-stim-button","397","570885","0.0-19.13-0.13","columbia-card-task-hot","false","0","22","558","558","0","test","19","14","1","30","250","420","false","rigged_win","","","",""
"662","","pre_stim","single-stim-button","398","571549","0.0-19.14-0.14","columbia-card-task-hot","false","0","21","662","662","0","test","19","15","1","30","250","450","false","rigged_win","","","",""
"1214","","pre_stim","single-stim-button","399","572766","0.0-19.15-0.15","columbia-card-task-hot","false","0","17","1214","1214","0","test","19","16","1","30","250","480","false","rigged_win","","","",""
"422","","pre_stim","single-stim-button","400","573190","0.0-19.16-0.16","columbia-card-task-hot","false","0","18","422","422","0","test","19","17","1","30","250","510","false","rigged_win","","","",""
"646","","pre_stim","single-stim-button","401","573837","0.0-19.17-0.17","columbia-card-task-hot","false","0","19","646","646","0","test","19","18","1","30","250","540","false","rigged_win","","","",""
"486","","pre_stim","single-stim-button","402","574326","0.0-19.18-0.18","columbia-card-task-hot","false","0","20","486","486","0","test","19","19","1","30","250","570","false","rigged_win","","","",""
"1125","","pre_stim","single-stim-button","403","575453","0.0-19.19-0.19","columbia-card-task-hot","false","0","7","1125","1125","0","test","19","20","1","30","250","600","false","rigged_win","","","",""
"718","","pre_stim","single-stim-button","404","576174","0.0-19.20-0.20","columbia-card-task-hot","false","0","6","718","718","0","test","19","21","1","30","250","630","false","rigged_win","","","",""
"1117","","pre_stim","single-stim-button","405","577294","0.0-19.21-0.21","columbia-card-task-hot","false","0","5","1117","1117","0","test","19","22","1","30","250","660","false","rigged_win","","","",""
"846","","pre_stim","single-stim-button","406","578141","0.0-19.22-0.22","columbia-card-task-hot","false","0","14","846","846","0","test","19","23","1","30","250","690","false","rigged_win","","","",""
"942","","pre_stim","single-stim-button","407","579086","0.0-19.23-0.23","columbia-card-task-hot","false","0","13","942","942","0","test","19","24","1","30","250","720","false","rigged_win","","","",""
"1077","","pre_stim","single-stim-button","408","580165","0.0-19.24-0.24","columbia-card-task-hot","false","0","4","1077","1077","0","test","19","25","1","30","250","750","false","rigged_win","","","",""
"966","","pre_stim","single-stim-button","409","581133","0.0-19.25-0.25","columbia-card-task-hot","false","0","12","966","966","0","test","19","26","1","30","250","780","false","rigged_win","","","",""
"878","","pre_stim","single-stim-button","410","582014","0.0-19.26-0.26","columbia-card-task-hot","false","0","11","878","878","0","test","19","27","1","30","250","810","false","rigged_win","","","",""
"1821","","pre_stim","single-stim-button","411","583837","0.0-19.27-0.27","columbia-card-task-hot","false","0","turnButton","1821","1821","0","test","19","27","1","30","250","810","false","rigged_win","","","",""
"3574","","pre_stim","single-stim-button","412","587414","0.0-19.28-0.28","columbia-card-task-hot","false","0","collectButton","3574","3574","0","test","19","28","1","30","250","810","false","rigged_win","","","",""
"7070","","pre_stim","single-stim-button","413","594486","0.0-20.0-0.0","columbia-card-task-hot","false","0","1","7070","7070","0","test","20","1","3","10","750","10","false","rigged_win","","","",""
"1230","","pre_stim","single-stim-button","414","595717","0.0-20.1-0.1","columbia-card-task-hot","false","0","9","1230","1230","0","test","20","2","3","10","750","20","false","rigged_win","","","",""
"838","","pre_stim","single-stim-button","415","596557","0.0-20.2-0.2","columbia-card-task-hot","false","0","17","838","838","0","test","20","3","3","10","750","30","false","rigged_win","","","",""
"1198","","pre_stim","single-stim-button","416","597758","0.0-20.3-0.3","columbia-card-task-hot","false","0","26","1198","1198","0","test","20","4","3","10","750","40","false","rigged_win","","","",""
"909","","pre_stim","single-stim-button","417","598669","0.0-20.4-0.4","columbia-card-task-hot","false","0","25","909","909","0","test","20","5","3","10","750","50","false","rigged_win","","","",""
"1302","","pre_stim","single-stim-button","418","599974","0.0-20.5-0.5","columbia-card-task-hot","false","0","27","1302","1302","0","test","20","6","3","10","750","60","false","rigged_win","","","",""
"1357","","pre_stim","single-stim-button","419","601333","0.0-20.6-0.6","columbia-card-task-hot","false","0","28","1357","1357","0","test","20","7","3","10","750","70","false","rigged_win","","","",""
"541","","pre_stim","single-stim-button","420","601877","0.0-20.7-0.7","columbia-card-task-hot","false","0","29","541","541","0","test","20","8","3","10","750","80","false","rigged_win","","","",""
"950","","pre_stim","single-stim-button","421","602829","0.0-20.8-0.8","columbia-card-task-hot","false","0","2","950","950","0","test","20","9","3","10","750","90","false","rigged_win","","","",""
"870","","pre_stim","single-stim-button","422","603701","0.0-20.9-0.9","columbia-card-task-hot","false","0","3","870","870","0","test","20","10","3","10","750","100","false","rigged_win","","","",""
"590","","pre_stim","single-stim-button","423","604294","0.0-20.10-0.10","columbia-card-task-hot","false","0","4","590","590","0","test","20","11","3","10","750","110","false","rigged_win","","","",""
"661","","pre_stim","single-stim-button","424","604957","0.0-20.11-0.11","columbia-card-task-hot","false","0","5","661","661","0","test","20","12","3","10","750","120","false","rigged_win","","","",""
"630","","pre_stim","single-stim-button","425","605590","0.0-20.12-0.12","columbia-card-task-hot","false","0","6","630","630","0","test","20","13","3","10","750","130","false","rigged_win","","","",""
"1076","","pre_stim","single-stim-button","426","606669","0.0-20.13-0.13","columbia-card-task-hot","false","0","7","1076","1076","0","test","20","14","3","10","750","140","false","rigged_win","","","",""
"622","","pre_stim","single-stim-button","427","607294","0.0-20.14-0.14","columbia-card-task-hot","false","0","8","622","622","0","test","20","15","3","10","750","150","false","rigged_win","","","",""
"1094","","pre_stim","single-stim-button","428","608389","0.0-20.15-0.15","columbia-card-task-hot","false","0","10","1094","1094","0","test","20","16","3","10","750","160","false","rigged_win","","","",""
"1414","","pre_stim","single-stim-button","429","609805","0.0-20.16-0.16","columbia-card-task-hot","false","0","12","1414","1414","0","test","20","17","3","10","750","170","false","rigged_win","","","",""
"966","","pre_stim","single-stim-button","430","610774","0.0-20.17-0.17","columbia-card-task-hot","false","0","14","966","966","0","test","20","18","3","10","750","180","false","rigged_win","","","",""
"1269","","pre_stim","single-stim-button","431","612046","0.0-20.18-0.18","columbia-card-task-hot","false","0","16","1269","1269","0","test","20","19","3","10","750","190","false","rigged_win","","","",""
"1029","","pre_stim","single-stim-button","432","613077","0.0-20.19-0.19","columbia-card-task-hot","false","0","23","1029","1029","0","test","20","20","3","10","750","200","false","rigged_win","","","",""
"1157","","pre_stim","single-stim-button","433","614237","0.0-20.20-0.20","columbia-card-task-hot","false","0","32","1157","1157","0","test","20","21","3","10","750","210","false","rigged_win","","","",""
"894","","pre_stim","single-stim-button","434","615133","0.0-20.21-0.21","columbia-card-task-hot","false","0","30","894","894","0","test","20","22","3","10","750","220","false","rigged_win","","","",""
"1038","","pre_stim","single-stim-button","435","616174","0.0-20.22-0.22","columbia-card-task-hot","false","0","21","1038","1038","0","test","20","23","3","10","750","230","false","rigged_win","","","",""
"909","","pre_stim","single-stim-button","436","617086","0.0-20.23-0.23","columbia-card-task-hot","false","0","19","909","909","0","test","20","24","3","10","750","240","false","rigged_win","","","",""
"2133","","pre_stim","single-stim-button","437","619221","0.0-20.24-0.24","columbia-card-task-hot","false","0","31","2133","2133","0","test","20","25","3","10","750","250","false","rigged_win","","","",""
"965","","pre_stim","single-stim-button","438","620189","0.0-20.25-0.25","columbia-card-task-hot","false","0","24","965","965","0","test","20","26","3","10","750","260","false","rigged_win","","","",""
"1973","","pre_stim","single-stim-button","439","622165","0.0-20.26-0.26","columbia-card-task-hot","false","0","turnButton","1973","1973","0","test","20","26","3","10","750","260","false","rigged_win","","","",""
"3461","","pre_stim","single-stim-button","440","625629","0.0-20.27-0.27","columbia-card-task-hot","false","0","collectButton","3461","3461","0","test","20","27","3","10","750","260","false","rigged_win","","","",""
"52909","{""Q0"":""Karten nacheinander aufdecken und versuchen so viele Punkte wie mglich zu sammeln, ohne dabei eine Verlustkarte aufzudecken."",""Q1"":""""}","post task questions","survey-text","441","678541","0.0-21.0","columbia-card-task-hot","false","0","","","","","","","","","","","","","","true","0","",""
"17004","","","poldrack-text","442","696565","0.0-22.0","columbia-card-task-hot","false","0","","","17004","1000","","","","","","","","","","","","<div class = centerbox><p class = center-block-text>Finished with this task.</p></div>","17"
