"rt","responses","trial_id","trial_type","trial_index","time_elapsed","internal_node_id","exp_id","full_screen","focus_shifts","mouse_click","stim_duration","block_duration","timing_post_trial","exp_stage","which_round","num_click_in_round","num_loss_cards","gain_amount","loss_amount","round_points","clicked_on_loss_card","round_type","credit_var","performance_var","text","key_press"
"7294","{""Q0"":""uE2Go""}","pre task questions","survey-text","0","7296","0.0-0.0","columbia-card-task-hot","true","0","","","","","","","","","","","","","","","","",""
"7668","","pre_stim","single-stim-button","1","15967","0.0-1.0-0.0","columbia-card-task-hot","true","0","28","7668","7668","0","test","1","1","3","30","250","30","false","rigged_loss","","","",""
"654","","pre_stim","single-stim-button","2","16623","0.0-1.1-0.1","columbia-card-task-hot","true","0","29","654","654","0","test","1","2","3","30","250","60","false","rigged_loss","","","",""
"487","","pre_stim","single-stim-button","3","17111","0.0-1.2-0.2","columbia-card-task-hot","true","0","30","487","487","0","test","1","3","3","30","250","90","false","rigged_loss","","","",""
"519","","pre_stim","single-stim-button","4","17631","0.0-1.3-0.3","columbia-card-task-hot","true","0","31","519","519","0","test","1","4","3","30","250","120","false","rigged_loss","","","",""
"647","","pre_stim","single-stim-button","5","18279","0.0-1.4-0.4","columbia-card-task-hot","true","0","32","647","647","0","test","1","5","3","30","250","150","false","rigged_loss","","","",""
"5143","","pre_stim","single-stim-button","6","23423","0.0-1.5-0.5","columbia-card-task-hot","true","0","26","5143","5143","0","test","1","6","3","30","250","180","false","rigged_loss","","","",""
"1519","","pre_stim","single-stim-button","7","24943","0.0-1.6-0.6","columbia-card-task-hot","true","0","16","1519","1519","0","test","1","7","3","30","250","210","false","rigged_loss","","","",""
"527","","pre_stim","single-stim-button","8","25471","0.0-1.7-0.7","columbia-card-task-hot","true","0","24","527","527","0","test","1","8","3","30","250","240","false","rigged_loss","","","",""
"1279","","pre_stim","single-stim-button","9","26751","0.0-1.8-0.8","columbia-card-task-hot","true","0","23","1279","1279","0","test","1","9","3","30","250","270","false","rigged_loss","","","",""
"1087","","pre_stim","single-stim-button","10","27839","0.0-1.9-0.9","columbia-card-task-hot","true","0","15","1087","1087","0","test","1","10","3","30","250","300","false","rigged_loss","","","",""
"1423","","pre_stim","single-stim-button","11","29263","0.0-1.10-0.10","columbia-card-task-hot","true","0","22","1423","1423","0","test","1","11","3","30","250","330","false","rigged_loss","","","",""
"5135","","pre_stim","single-stim-button","12","34399","0.0-1.11-0.11","columbia-card-task-hot","true","0","21","5135","5135","0","test","1","12","3","30","250","360","false","rigged_loss","","","",""
"959","","pre_stim","single-stim-button","13","35359","0.0-1.12-0.12","columbia-card-task-hot","true","0","14","959","959","0","test","1","13","3","30","250","390","false","rigged_loss","","","",""
"1815","","pre_stim","single-stim-button","14","37175","0.0-1.13-0.13","columbia-card-task-hot","true","0","20","1815","1815","0","test","1","14","3","30","250","420","false","rigged_loss","","","",""
"1263","","pre_stim","single-stim-button","15","38439","0.0-1.14-0.14","columbia-card-task-hot","true","0","13","1263","1263","0","test","1","15","3","30","250","450","false","rigged_loss","","","",""
"2111","","pre_stim","single-stim-button","16","40551","0.0-1.15-0.15","columbia-card-task-hot","true","0","7","2111","2111","0","test","1","16","3","30","250","480","false","rigged_loss","","","",""
"855","","pre_stim","single-stim-button","17","41407","0.0-1.16-0.16","columbia-card-task-hot","true","0","8","855","855","0","test","1","17","3","30","250","510","false","rigged_loss","","","",""
"6911","","pre_stim","single-stim-button","18","48319","0.0-1.17-0.17","columbia-card-task-hot","true","0","turnButton","6911","6911","0","test","1","17","3","30","250","510","false","rigged_loss","","","",""
"4879","","pre_stim","single-stim-button","19","53199","0.0-1.18-0.18","columbia-card-task-hot","true","0","collectButton","4879","4879","0","test","1","18","3","30","250","510","false","rigged_loss","","","",""
"6806","","pre_stim","single-stim-button","20","60007","0.0-2.0-0.0","columbia-card-task-hot","true","0","1","6806","6806","0","test","2","1","1","30","750","30","false","rigged_loss","","","",""
"495","","pre_stim","single-stim-button","21","60502","0.0-2.1-0.1","columbia-card-task-hot","true","0","2","495","495","0","test","2","2","1","30","750","60","false","rigged_loss","","","",""
"415","","pre_stim","single-stim-button","22","60918","0.0-2.2-0.2","columbia-card-task-hot","true","0","3","415","415","0","test","2","3","1","30","750","-690","true","rigged_loss","","","",""
"3759","","pre_stim","single-stim-button","23","64678","0.0-2.3-0.3","columbia-card-task-hot","true","0","collectButton","3759","3759","0","test","2","4","1","30","750","-690","true","rigged_loss","","","",""
"7271","","pre_stim","single-stim-button","24","71951","0.0-3.0-0.0","columbia-card-task-hot","true","0","25","7271","7271","0","test","3","1","1","10","750","10","false","rigged_win","","","",""
"447","","pre_stim","single-stim-button","25","72399","0.0-3.1-0.1","columbia-card-task-hot","true","0","26","447","447","0","test","3","2","1","10","750","20","false","rigged_win","","","",""
"567","","pre_stim","single-stim-button","26","72967","0.0-3.2-0.2","columbia-card-task-hot","true","0","28","567","567","0","test","3","3","1","10","750","30","false","rigged_win","","","",""
"1503","","pre_stim","single-stim-button","27","74470","0.0-3.3-0.3","columbia-card-task-hot","true","0","29","1503","1503","0","test","3","4","1","10","750","40","false","rigged_win","","","",""
"663","","pre_stim","single-stim-button","28","75134","0.0-3.4-0.4","columbia-card-task-hot","true","0","30","663","663","0","test","3","5","1","10","750","50","false","rigged_win","","","",""
"479","","pre_stim","single-stim-button","29","75615","0.0-3.5-0.5","columbia-card-task-hot","true","0","31","479","479","0","test","3","6","1","10","750","60","false","rigged_win","","","",""
"494","","pre_stim","single-stim-button","30","76110","0.0-3.6-0.6","columbia-card-task-hot","true","0","32","494","494","0","test","3","7","1","10","750","70","false","rigged_win","","","",""
"712","","pre_stim","single-stim-button","31","76822","0.0-3.7-0.7","columbia-card-task-hot","true","0","24","712","712","0","test","3","8","1","10","750","80","false","rigged_win","","","",""
"1384","","pre_stim","single-stim-button","32","78207","0.0-3.8-0.8","columbia-card-task-hot","true","0","23","1384","1384","0","test","3","9","1","10","750","90","false","rigged_win","","","",""
"575","","pre_stim","single-stim-button","33","78782","0.0-3.9-0.9","columbia-card-task-hot","true","0","22","575","575","0","test","3","10","1","10","750","100","false","rigged_win","","","",""
"663","","pre_stim","single-stim-button","34","79446","0.0-3.10-0.10","columbia-card-task-hot","true","0","21","663","663","0","test","3","11","1","10","750","110","false","rigged_win","","","",""
"655","","pre_stim","single-stim-button","35","80102","0.0-3.11-0.11","columbia-card-task-hot","true","0","20","655","655","0","test","3","12","1","10","750","120","false","rigged_win","","","",""
"583","","pre_stim","single-stim-button","36","80686","0.0-3.12-0.12","columbia-card-task-hot","true","0","19","583","583","0","test","3","13","1","10","750","130","false","rigged_win","","","",""
"575","","pre_stim","single-stim-button","37","81262","0.0-3.13-0.13","columbia-card-task-hot","true","0","18","575","575","0","test","3","14","1","10","750","140","false","rigged_win","","","",""
"735","","pre_stim","single-stim-button","38","81998","0.0-3.14-0.14","columbia-card-task-hot","true","0","17","735","735","0","test","3","15","1","10","750","150","false","rigged_win","","","",""
"2719","","pre_stim","single-stim-button","39","84718","0.0-3.15-0.15","columbia-card-task-hot","true","0","14","2719","2719","0","test","3","16","1","10","750","160","false","rigged_win","","","",""
"535","","pre_stim","single-stim-button","40","85254","0.0-3.16-0.16","columbia-card-task-hot","true","0","15","535","535","0","test","3","17","1","10","750","170","false","rigged_win","","","",""
"471","","pre_stim","single-stim-button","41","85726","0.0-3.17-0.17","columbia-card-task-hot","true","0","16","471","471","0","test","3","18","1","10","750","180","false","rigged_win","","","",""
"1303","","pre_stim","single-stim-button","42","87030","0.0-3.18-0.18","columbia-card-task-hot","true","0","8","1303","1303","0","test","3","19","1","10","750","190","false","rigged_win","","","",""
"1719","","pre_stim","single-stim-button","43","88750","0.0-3.19-0.19","columbia-card-task-hot","true","0","9","1719","1719","0","test","3","20","1","10","750","200","false","rigged_win","","","",""
"648","","pre_stim","single-stim-button","44","89398","0.0-3.20-0.20","columbia-card-task-hot","true","0","10","648","648","0","test","3","21","1","10","750","210","false","rigged_win","","","",""
"887","","pre_stim","single-stim-button","45","90287","0.0-3.21-0.21","columbia-card-task-hot","true","0","11","887","887","0","test","3","22","1","10","750","220","false","rigged_win","","","",""
"2855","","pre_stim","single-stim-button","46","93142","0.0-3.22-0.22","columbia-card-task-hot","true","0","turnButton","2855","2855","0","test","3","22","1","10","750","220","false","rigged_win","","","",""
"4639","","pre_stim","single-stim-button","47","97782","0.0-3.23-0.23","columbia-card-task-hot","true","0","collectButton","4639","4639","0","test","3","23","1","10","750","220","false","rigged_win","","","",""
"7560","","pre_stim","single-stim-button","48","105343","0.0-4.0-0.0","columbia-card-task-hot","true","0","1","7560","7560","0","test","4","1","1","10","750","10","false","rigged_win","","","",""
"751","","pre_stim","single-stim-button","49","106094","0.0-4.1-0.1","columbia-card-task-hot","true","0","3","751","751","0","test","4","2","1","10","750","20","false","rigged_win","","","",""
"439","","pre_stim","single-stim-button","50","106534","0.0-4.2-0.2","columbia-card-task-hot","true","0","4","439","439","0","test","4","3","1","10","750","30","false","rigged_win","","","",""
"431","","pre_stim","single-stim-button","51","106966","0.0-4.3-0.3","columbia-card-task-hot","true","0","5","431","431","0","test","4","4","1","10","750","40","false","rigged_win","","","",""
"415","","pre_stim","single-stim-button","52","107382","0.0-4.4-0.4","columbia-card-task-hot","true","0","6","415","415","0","test","4","5","1","10","750","50","false","rigged_win","","","",""
"527","","pre_stim","single-stim-button","53","107910","0.0-4.5-0.5","columbia-card-task-hot","true","0","7","527","527","0","test","4","6","1","10","750","60","false","rigged_win","","","",""
"992","","pre_stim","single-stim-button","54","108902","0.0-4.6-0.6","columbia-card-task-hot","true","0","8","992","992","0","test","4","7","1","10","750","70","false","rigged_win","","","",""
"623","","pre_stim","single-stim-button","55","109526","0.0-4.7-0.7","columbia-card-task-hot","true","0","16","623","623","0","test","4","8","1","10","750","80","false","rigged_win","","","",""
"399","","pre_stim","single-stim-button","56","109926","0.0-4.8-0.8","columbia-card-task-hot","true","0","15","399","399","0","test","4","9","1","10","750","90","false","rigged_win","","","",""
"895","","pre_stim","single-stim-button","57","110822","0.0-4.9-0.9","columbia-card-task-hot","true","0","14","895","895","0","test","4","10","1","10","750","100","false","rigged_win","","","",""
"527","","pre_stim","single-stim-button","58","111350","0.0-4.10-0.10","columbia-card-task-hot","true","0","13","527","527","0","test","4","11","1","10","750","110","false","rigged_win","","","",""
"599","","pre_stim","single-stim-button","59","111950","0.0-4.11-0.11","columbia-card-task-hot","true","0","12","599","599","0","test","4","12","1","10","750","120","false","rigged_win","","","",""
"535","","pre_stim","single-stim-button","60","112486","0.0-4.12-0.12","columbia-card-task-hot","true","0","11","535","535","0","test","4","13","1","10","750","130","false","rigged_win","","","",""
"863","","pre_stim","single-stim-button","61","113350","0.0-4.13-0.13","columbia-card-task-hot","true","0","10","863","863","0","test","4","14","1","10","750","140","false","rigged_win","","","",""
"1175","","pre_stim","single-stim-button","62","114526","0.0-4.14-0.14","columbia-card-task-hot","true","0","9","1175","1175","0","test","4","15","1","10","750","150","false","rigged_win","","","",""
"790","","pre_stim","single-stim-button","63","115318","0.0-4.15-0.15","columbia-card-task-hot","true","0","17","790","790","0","test","4","16","1","10","750","160","false","rigged_win","","","",""
"535","","pre_stim","single-stim-button","64","115854","0.0-4.16-0.16","columbia-card-task-hot","true","0","18","535","535","0","test","4","17","1","10","750","170","false","rigged_win","","","",""
"463","","pre_stim","single-stim-button","65","116319","0.0-4.17-0.17","columbia-card-task-hot","true","0","19","463","463","0","test","4","18","1","10","750","180","false","rigged_win","","","",""
"511","","pre_stim","single-stim-button","66","116831","0.0-4.18-0.18","columbia-card-task-hot","true","0","20","511","511","0","test","4","19","1","10","750","190","false","rigged_win","","","",""
"487","","pre_stim","single-stim-button","67","117318","0.0-4.19-0.19","columbia-card-task-hot","true","0","21","487","487","0","test","4","20","1","10","750","200","false","rigged_win","","","",""
"415","","pre_stim","single-stim-button","68","117734","0.0-4.20-0.20","columbia-card-task-hot","true","0","22","415","415","0","test","4","21","1","10","750","210","false","rigged_win","","","",""
"1631","","pre_stim","single-stim-button","69","119367","0.0-4.21-0.21","columbia-card-task-hot","true","0","23","1631","1631","0","test","4","22","1","10","750","220","false","rigged_win","","","",""
"1959","","pre_stim","single-stim-button","70","121327","0.0-4.22-0.22","columbia-card-task-hot","true","0","25","1959","1959","0","test","4","23","1","10","750","230","false","rigged_win","","","",""
"487","","pre_stim","single-stim-button","71","121814","0.0-4.23-0.23","columbia-card-task-hot","true","0","26","487","487","0","test","4","24","1","10","750","240","false","rigged_win","","","",""
"647","","pre_stim","single-stim-button","72","122463","0.0-4.24-0.24","columbia-card-task-hot","true","0","27","647","647","0","test","4","25","1","10","750","250","false","rigged_win","","","",""
"462","","pre_stim","single-stim-button","73","122927","0.0-4.25-0.25","columbia-card-task-hot","true","0","28","462","462","0","test","4","26","1","10","750","260","false","rigged_win","","","",""
"2430","","pre_stim","single-stim-button","74","125359","0.0-4.26-0.26","columbia-card-task-hot","true","0","turnButton","2430","2430","0","test","4","26","1","10","750","260","false","rigged_win","","","",""
"4135","","pre_stim","single-stim-button","75","129495","0.0-4.27-0.27","columbia-card-task-hot","true","0","collectButton","4135","4135","0","test","4","27","1","10","750","260","false","rigged_win","","","",""
"6816","","pre_stim","single-stim-button","76","136311","0.0-5.0-0.0","columbia-card-task-hot","true","0","1","6816","6816","0","test","5","1","1","10","250","10","false","rigged_win","","","",""
"574","","pre_stim","single-stim-button","77","136887","0.0-5.1-0.1","columbia-card-task-hot","true","0","9","574","574","0","test","5","2","1","10","250","20","false","rigged_win","","","",""
"406","","pre_stim","single-stim-button","78","137294","0.0-5.2-0.2","columbia-card-task-hot","true","0","17","406","406","0","test","5","3","1","10","250","30","false","rigged_win","","","",""
"632","","pre_stim","single-stim-button","79","137927","0.0-5.3-0.3","columbia-card-task-hot","true","0","25","632","632","0","test","5","4","1","10","250","40","false","rigged_win","","","",""
"750","","pre_stim","single-stim-button","80","138679","0.0-5.4-0.4","columbia-card-task-hot","true","0","18","750","750","0","test","5","5","1","10","250","50","false","rigged_win","","","",""
"639","","pre_stim","single-stim-button","81","139319","0.0-5.5-0.5","columbia-card-task-hot","true","0","10","639","639","0","test","5","6","1","10","250","60","false","rigged_win","","","",""
"487","","pre_stim","single-stim-button","82","139807","0.0-5.6-0.6","columbia-card-task-hot","true","0","2","487","487","0","test","5","7","1","10","250","70","false","rigged_win","","","",""
"727","","pre_stim","single-stim-button","83","140535","0.0-5.7-0.7","columbia-card-task-hot","true","0","26","727","727","0","test","5","8","1","10","250","80","false","rigged_win","","","",""
"1256","","pre_stim","single-stim-button","84","141791","0.0-5.8-0.8","columbia-card-task-hot","true","0","27","1256","1256","0","test","5","9","1","10","250","90","false","rigged_win","","","",""
"438","","pre_stim","single-stim-button","85","142231","0.0-5.9-0.9","columbia-card-task-hot","true","0","19","438","438","0","test","5","10","1","10","250","100","false","rigged_win","","","",""
"1279","","pre_stim","single-stim-button","86","143511","0.0-5.10-0.10","columbia-card-task-hot","true","0","3","1279","1279","0","test","5","11","1","10","250","110","false","rigged_win","","","",""
"454","","pre_stim","single-stim-button","87","143966","0.0-5.11-0.11","columbia-card-task-hot","true","0","11","454","454","0","test","5","12","1","10","250","120","false","rigged_win","","","",""
"503","","pre_stim","single-stim-button","88","144471","0.0-5.12-0.12","columbia-card-task-hot","true","0","4","503","503","0","test","5","13","1","10","250","130","false","rigged_win","","","",""
"439","","pre_stim","single-stim-button","89","144911","0.0-5.13-0.13","columbia-card-task-hot","true","0","12","439","439","0","test","5","14","1","10","250","140","false","rigged_win","","","",""
"1174","","pre_stim","single-stim-button","90","146087","0.0-5.14-0.14","columbia-card-task-hot","true","0","28","1174","1174","0","test","5","15","1","10","250","150","false","rigged_win","","","",""
"503","","pre_stim","single-stim-button","91","146591","0.0-5.15-0.15","columbia-card-task-hot","true","0","20","503","503","0","test","5","16","1","10","250","160","false","rigged_win","","","",""
"502","","pre_stim","single-stim-button","92","147095","0.0-5.16-0.16","columbia-card-task-hot","true","0","29","502","502","0","test","5","17","1","10","250","170","false","rigged_win","","","",""
"1278","","pre_stim","single-stim-button","93","148375","0.0-5.17-0.17","columbia-card-task-hot","true","0","21","1278","1278","0","test","5","18","1","10","250","180","false","rigged_win","","","",""
"439","","pre_stim","single-stim-button","94","148814","0.0-5.18-0.18","columbia-card-task-hot","true","0","13","439","439","0","test","5","19","1","10","250","190","false","rigged_win","","","",""
"487","","pre_stim","single-stim-button","95","149303","0.0-5.19-0.19","columbia-card-task-hot","true","0","5","487","487","0","test","5","20","1","10","250","200","false","rigged_win","","","",""
"623","","pre_stim","single-stim-button","96","149927","0.0-5.20-0.20","columbia-card-task-hot","true","0","6","623","623","0","test","5","21","1","10","250","210","false","rigged_win","","","",""
"518","","pre_stim","single-stim-button","97","150447","0.0-5.21-0.21","columbia-card-task-hot","true","0","14","518","518","0","test","5","22","1","10","250","220","false","rigged_win","","","",""
"567","","pre_stim","single-stim-button","98","151015","0.0-5.22-0.22","columbia-card-task-hot","true","0","22","567","567","0","test","5","23","1","10","250","230","false","rigged_win","","","",""
"566","","pre_stim","single-stim-button","99","151583","0.0-5.23-0.23","columbia-card-task-hot","true","0","30","566","566","0","test","5","24","1","10","250","240","false","rigged_win","","","",""
"590","","pre_stim","single-stim-button","100","152175","0.0-5.24-0.24","columbia-card-task-hot","true","0","31","590","590","0","test","5","25","1","10","250","250","false","rigged_win","","","",""
"494","","pre_stim","single-stim-button","101","152671","0.0-5.25-0.25","columbia-card-task-hot","true","0","32","494","494","0","test","5","26","1","10","250","260","false","rigged_win","","","",""
"550","","pre_stim","single-stim-button","102","153223","0.0-5.26-0.26","columbia-card-task-hot","true","0","23","550","550","0","test","5","27","1","10","250","270","false","rigged_win","","","",""
"438","","pre_stim","single-stim-button","103","153663","0.0-5.27-0.27","columbia-card-task-hot","true","0","24","438","438","0","test","5","28","1","10","250","280","false","rigged_win","","","",""
"2343","","pre_stim","single-stim-button","104","156007","0.0-5.28-0.28","columbia-card-task-hot","true","0","15","2343","2343","0","test","5","29","1","10","250","290","false","rigged_win","","","",""
"1990","","pre_stim","single-stim-button","105","157999","0.0-5.29-0.29","columbia-card-task-hot","true","0","turnButton","1990","1990","0","test","5","29","1","10","250","290","false","rigged_win","","","",""
"4038","","pre_stim","single-stim-button","106","162039","0.0-5.30-0.30","columbia-card-task-hot","true","0","collectButton","4038","4038","0","test","5","30","1","10","250","290","false","rigged_win","","","",""
"7840","","pre_stim","single-stim-button","107","169879","0.0-6.0-0.0","columbia-card-task-hot","true","0","1","7840","7840","0","test","6","1","1","10","250","10","false","rigged_win","","","",""
"566","","pre_stim","single-stim-button","108","170447","0.0-6.1-0.1","columbia-card-task-hot","true","0","2","566","566","0","test","6","2","1","10","250","20","false","rigged_win","","","",""
"542","","pre_stim","single-stim-button","109","170991","0.0-6.2-0.2","columbia-card-task-hot","true","0","9","542","542","0","test","6","3","1","10","250","30","false","rigged_win","","","",""
"398","","pre_stim","single-stim-button","110","171391","0.0-6.3-0.3","columbia-card-task-hot","true","0","10","398","398","0","test","6","4","1","10","250","40","false","rigged_win","","","",""
"503","","pre_stim","single-stim-button","111","171895","0.0-6.4-0.4","columbia-card-task-hot","true","0","17","503","503","0","test","6","5","1","10","250","50","false","rigged_win","","","",""
"431","","pre_stim","single-stim-button","112","172327","0.0-6.5-0.5","columbia-card-task-hot","true","0","18","431","431","0","test","6","6","1","10","250","60","false","rigged_win","","","",""
"430","","pre_stim","single-stim-button","113","172759","0.0-6.6-0.6","columbia-card-task-hot","true","0","19","430","430","0","test","6","7","1","10","250","70","false","rigged_win","","","",""
"422","","pre_stim","single-stim-button","114","173183","0.0-6.7-0.7","columbia-card-task-hot","true","0","11","422","422","0","test","6","8","1","10","250","80","false","rigged_win","","","",""
"438","","pre_stim","single-stim-button","115","173623","0.0-6.8-0.8","columbia-card-task-hot","true","0","3","438","438","0","test","6","9","1","10","250","90","false","rigged_win","","","",""
"678","","pre_stim","single-stim-button","116","174303","0.0-6.9-0.9","columbia-card-task-hot","true","0","25","678","678","0","test","6","10","1","10","250","100","false","rigged_win","","","",""
"478","","pre_stim","single-stim-button","117","174783","0.0-6.10-0.10","columbia-card-task-hot","true","0","26","478","478","0","test","6","11","1","10","250","110","false","rigged_win","","","",""
"430","","pre_stim","single-stim-button","118","175215","0.0-6.11-0.11","columbia-card-task-hot","true","0","27","430","430","0","test","6","12","1","10","250","120","false","rigged_win","","","",""
"998","","pre_stim","single-stim-button","119","176215","0.0-6.12-0.12","columbia-card-task-hot","true","0","4","998","998","0","test","6","13","1","10","250","130","false","rigged_win","","","",""
"502","","pre_stim","single-stim-button","120","176719","0.0-6.13-0.13","columbia-card-task-hot","true","0","12","502","502","0","test","6","14","1","10","250","140","false","rigged_win","","","",""
"494","","pre_stim","single-stim-button","121","177215","0.0-6.14-0.14","columbia-card-task-hot","true","0","5","494","494","0","test","6","15","1","10","250","150","false","rigged_win","","","",""
"855","","pre_stim","single-stim-button","122","178071","0.0-6.15-0.15","columbia-card-task-hot","true","0","20","855","855","0","test","6","16","1","10","250","160","false","rigged_win","","","",""
"558","","pre_stim","single-stim-button","123","178631","0.0-6.16-0.16","columbia-card-task-hot","true","0","28","558","558","0","test","6","17","1","10","250","170","false","rigged_win","","","",""
"2309","","pre_stim","single-stim-button","124","180942","0.0-6.17-0.17","columbia-card-task-hot","true","0","13","2309","2309","0","test","6","18","1","10","250","180","false","rigged_win","","","",""
"847","","pre_stim","single-stim-button","125","181790","0.0-6.18-0.18","columbia-card-task-hot","true","0","21","847","847","0","test","6","19","1","10","250","190","false","rigged_win","","","",""
"1863","","pre_stim","single-stim-button","126","183654","0.0-6.19-0.19","columbia-card-task-hot","true","0","14","1863","1863","0","test","6","20","1","10","250","200","false","rigged_win","","","",""
"407","","pre_stim","single-stim-button","127","184062","0.0-6.20-0.20","columbia-card-task-hot","true","0","6","407","407","0","test","6","21","1","10","250","210","false","rigged_win","","","",""
"2391","","pre_stim","single-stim-button","128","186454","0.0-6.21-0.21","columbia-card-task-hot","true","0","turnButton","2391","2391","0","test","6","21","1","10","250","210","false","rigged_win","","","",""
"3983","","pre_stim","single-stim-button","129","190438","0.0-6.22-0.22","columbia-card-task-hot","true","0","collectButton","3983","3983","0","test","6","22","1","10","250","210","false","rigged_win","","","",""
"7159","","pre_stim","single-stim-button","130","197598","0.0-7.0-0.0","columbia-card-task-hot","true","0","25","7159","7159","0","test","7","1","3","30","750","30","false","rigged_win","","","",""
"470","","pre_stim","single-stim-button","131","198070","0.0-7.1-0.1","columbia-card-task-hot","true","0","17","470","470","0","test","7","2","3","30","750","60","false","rigged_win","","","",""
"431","","pre_stim","single-stim-button","132","198502","0.0-7.2-0.2","columbia-card-task-hot","true","0","26","431","431","0","test","7","3","3","30","750","90","false","rigged_win","","","",""
"422","","pre_stim","single-stim-button","133","198926","0.0-7.3-0.3","columbia-card-task-hot","true","0","18","422","422","0","test","7","4","3","30","750","120","false","rigged_win","","","",""
"439","","pre_stim","single-stim-button","134","199366","0.0-7.4-0.4","columbia-card-task-hot","true","0","27","439","439","0","test","7","5","3","30","750","150","false","rigged_win","","","",""
"799","","pre_stim","single-stim-button","135","200166","0.0-7.5-0.5","columbia-card-task-hot","true","0","9","799","799","0","test","7","6","3","30","750","180","false","rigged_win","","","",""
"447","","pre_stim","single-stim-button","136","200614","0.0-7.6-0.6","columbia-card-task-hot","true","0","10","447","447","0","test","7","7","3","30","750","210","false","rigged_win","","","",""
"495","","pre_stim","single-stim-button","137","201110","0.0-7.7-0.7","columbia-card-task-hot","true","0","19","495","495","0","test","7","8","3","30","750","240","false","rigged_win","","","",""
"494","","pre_stim","single-stim-button","138","201606","0.0-7.8-0.8","columbia-card-task-hot","true","0","28","494","494","0","test","7","9","3","30","750","270","false","rigged_win","","","",""
"1895","","pre_stim","single-stim-button","139","203502","0.0-7.9-0.9","columbia-card-task-hot","true","0","11","1895","1895","0","test","7","10","3","30","750","300","false","rigged_win","","","",""
"454","","pre_stim","single-stim-button","140","203958","0.0-7.10-0.10","columbia-card-task-hot","true","0","20","454","454","0","test","7","11","3","30","750","330","false","rigged_win","","","",""
"678","","pre_stim","single-stim-button","141","204638","0.0-7.11-0.11","columbia-card-task-hot","true","0","29","678","678","0","test","7","12","3","30","750","360","false","rigged_win","","","",""
"1510","","pre_stim","single-stim-button","142","206150","0.0-7.12-0.12","columbia-card-task-hot","true","0","12","1510","1510","0","test","7","13","3","30","750","390","false","rigged_win","","","",""
"622","","pre_stim","single-stim-button","143","206774","0.0-7.13-0.13","columbia-card-task-hot","true","0","21","622","622","0","test","7","14","3","30","750","420","false","rigged_win","","","",""
"2390","","pre_stim","single-stim-button","144","209166","0.0-7.14-0.14","columbia-card-task-hot","true","0","turnButton","2390","2390","0","test","7","14","3","30","750","420","false","rigged_win","","","",""
"4343","","pre_stim","single-stim-button","145","213510","0.0-7.15-0.15","columbia-card-task-hot","true","0","collectButton","4343","4343","0","test","7","15","3","30","750","420","false","rigged_win","","","",""
"6423","","pre_stim","single-stim-button","146","219934","0.0-8.0-0.0","columbia-card-task-hot","true","0","7","6423","6423","0","test","8","1","3","10","750","10","false","rigged_win","","","",""
"446","","pre_stim","single-stim-button","147","220382","0.0-8.1-0.1","columbia-card-task-hot","true","0","15","446","446","0","test","8","2","3","10","750","20","false","rigged_win","","","",""
"535","","pre_stim","single-stim-button","148","220918","0.0-8.2-0.2","columbia-card-task-hot","true","0","23","535","535","0","test","8","3","3","10","750","30","false","rigged_win","","","",""
"614","","pre_stim","single-stim-button","149","221534","0.0-8.3-0.3","columbia-card-task-hot","true","0","31","614","614","0","test","8","4","3","10","750","40","false","rigged_win","","","",""
"1358","","pre_stim","single-stim-button","150","222894","0.0-8.4-0.4","columbia-card-task-hot","true","0","14","1358","1358","0","test","8","5","3","10","750","50","false","rigged_win","","","",""
"438","","pre_stim","single-stim-button","151","223334","0.0-8.5-0.5","columbia-card-task-hot","true","0","22","438","438","0","test","8","6","3","10","750","60","false","rigged_win","","","",""
"1983","","pre_stim","single-stim-button","152","225318","0.0-8.6-0.6","columbia-card-task-hot","true","0","13","1983","1983","0","test","8","7","3","10","750","70","false","rigged_win","","","",""
"511","","pre_stim","single-stim-button","153","225830","0.0-8.7-0.7","columbia-card-task-hot","true","0","21","511","511","0","test","8","8","3","10","750","80","false","rigged_win","","","",""
"542","","pre_stim","single-stim-button","154","226374","0.0-8.8-0.8","columbia-card-task-hot","true","0","12","542","542","0","test","8","9","3","10","750","90","false","rigged_win","","","",""
"487","","pre_stim","single-stim-button","155","226862","0.0-8.9-0.9","columbia-card-task-hot","true","0","20","487","487","0","test","8","10","3","10","750","100","false","rigged_win","","","",""
"2103","","pre_stim","single-stim-button","156","228966","0.0-8.10-0.10","columbia-card-task-hot","true","0","1","2103","2103","0","test","8","11","3","10","750","110","false","rigged_win","","","",""
"382","","pre_stim","single-stim-button","157","229350","0.0-8.11-0.11","columbia-card-task-hot","true","0","9","382","382","0","test","8","12","3","10","750","120","false","rigged_win","","","",""
"543","","pre_stim","single-stim-button","158","229894","0.0-8.12-0.12","columbia-card-task-hot","true","0","17","543","543","0","test","8","13","3","10","750","130","false","rigged_win","","","",""
"719","","pre_stim","single-stim-button","159","230614","0.0-8.13-0.13","columbia-card-task-hot","true","0","25","719","719","0","test","8","14","3","10","750","140","false","rigged_win","","","",""
"4239","","pre_stim","single-stim-button","160","234854","0.0-8.14-0.14","columbia-card-task-hot","true","0","turnButton","4239","4239","0","test","8","14","3","10","750","140","false","rigged_win","","","",""
"4174","","pre_stim","single-stim-button","161","239030","0.0-8.15-0.15","columbia-card-task-hot","true","0","collectButton","4174","4174","0","test","8","15","3","10","750","140","false","rigged_win","","","",""
"6222","","pre_stim","single-stim-button","162","245254","0.0-9.0-0.0","columbia-card-task-hot","true","0","13","6222","6222","0","test","9","1","3","30","750","30","false","rigged_loss","","","",""
"478","","pre_stim","single-stim-button","163","245734","0.0-9.1-0.1","columbia-card-task-hot","true","0","14","478","478","0","test","9","2","3","30","750","60","false","rigged_loss","","","",""
"455","","pre_stim","single-stim-button","164","246190","0.0-9.2-0.2","columbia-card-task-hot","true","0","15","455","455","0","test","9","3","3","30","750","90","false","rigged_loss","","","",""
"446","","pre_stim","single-stim-button","165","246638","0.0-9.3-0.3","columbia-card-task-hot","true","0","23","446","446","0","test","9","4","3","30","750","120","false","rigged_loss","","","",""
"1191","","pre_stim","single-stim-button","166","247830","0.0-9.4-0.4","columbia-card-task-hot","true","0","21","1191","1191","0","test","9","5","3","30","750","150","false","rigged_loss","","","",""
"438","","pre_stim","single-stim-button","167","248270","0.0-9.5-0.5","columbia-card-task-hot","true","0","22","438","438","0","test","9","6","3","30","750","-600","true","rigged_loss","","","",""
"7278","","pre_stim","single-stim-button","168","255550","0.0-9.6-0.6","columbia-card-task-hot","true","0","collectButton","7278","7278","0","test","9","7","3","30","750","-600","true","rigged_loss","","","",""
"7118","","pre_stim","single-stim-button","169","262670","0.0-10.0-0.0","columbia-card-task-hot","true","0","29","7118","7118","0","test","10","1","1","30","250","30","false","rigged_win","","","",""
"446","","pre_stim","single-stim-button","170","263118","0.0-10.1-0.1","columbia-card-task-hot","true","0","30","446","446","0","test","10","2","1","30","250","60","false","rigged_win","","","",""
"422","","pre_stim","single-stim-button","171","263542","0.0-10.2-0.2","columbia-card-task-hot","true","0","31","422","422","0","test","10","3","1","30","250","90","false","rigged_win","","","",""
"486","","pre_stim","single-stim-button","172","264030","0.0-10.3-0.3","columbia-card-task-hot","true","0","32","486","486","0","test","10","4","1","30","250","120","false","rigged_win","","","",""
"1222","","pre_stim","single-stim-button","173","265254","0.0-10.4-0.4","columbia-card-task-hot","true","0","24","1222","1222","0","test","10","5","1","30","250","150","false","rigged_win","","","",""
"798","","pre_stim","single-stim-button","174","266054","0.0-10.5-0.5","columbia-card-task-hot","true","0","23","798","798","0","test","10","6","1","30","250","180","false","rigged_win","","","",""
"599","","pre_stim","single-stim-button","175","266654","0.0-10.6-0.6","columbia-card-task-hot","true","0","22","599","599","0","test","10","7","1","30","250","210","false","rigged_win","","","",""
"1126","","pre_stim","single-stim-button","176","267782","0.0-10.7-0.7","columbia-card-task-hot","true","0","21","1126","1126","0","test","10","8","1","30","250","240","false","rigged_win","","","",""
"1614","","pre_stim","single-stim-button","177","269398","0.0-10.8-0.8","columbia-card-task-hot","true","0","13","1614","1614","0","test","10","9","1","30","250","270","false","rigged_win","","","",""
"471","","pre_stim","single-stim-button","178","269870","0.0-10.9-0.9","columbia-card-task-hot","true","0","14","471","471","0","test","10","10","1","30","250","300","false","rigged_win","","","",""
"566","","pre_stim","single-stim-button","179","270438","0.0-10.10-0.10","columbia-card-task-hot","true","0","15","566","566","0","test","10","11","1","30","250","330","false","rigged_win","","","",""
"2630","","pre_stim","single-stim-button","180","273070","0.0-10.11-0.11","columbia-card-task-hot","true","0","26","2630","2630","0","test","10","12","1","30","250","360","false","rigged_win","","","",""
"495","","pre_stim","single-stim-button","181","273566","0.0-10.12-0.12","columbia-card-task-hot","true","0","27","495","495","0","test","10","13","1","30","250","390","false","rigged_win","","","",""
"1022","","pre_stim","single-stim-button","182","274590","0.0-10.13-0.13","columbia-card-task-hot","true","0","28","1022","1022","0","test","10","14","1","30","250","420","false","rigged_win","","","",""
"1542","","pre_stim","single-stim-button","183","276134","0.0-10.14-0.14","columbia-card-task-hot","true","0","20","1542","1542","0","test","10","15","1","30","250","450","false","rigged_win","","","",""
"758","","pre_stim","single-stim-button","184","276894","0.0-10.15-0.15","columbia-card-task-hot","true","0","19","758","758","0","test","10","16","1","30","250","480","false","rigged_win","","","",""
"998","","pre_stim","single-stim-button","185","277894","0.0-10.16-0.16","columbia-card-task-hot","true","0","18","998","998","0","test","10","17","1","30","250","510","false","rigged_win","","","",""
"3182","","pre_stim","single-stim-button","186","281078","0.0-10.17-0.17","columbia-card-task-hot","true","0","turnButton","3182","3182","0","test","10","17","1","30","250","510","false","rigged_win","","","",""
"5038","","pre_stim","single-stim-button","187","286118","0.0-10.18-0.18","columbia-card-task-hot","true","0","collectButton","5038","5038","0","test","10","18","1","30","250","510","false","rigged_win","","","",""
"6510","","pre_stim","single-stim-button","188","292630","0.0-11.0-0.0","columbia-card-task-hot","true","0","28","6510","6510","0","test","11","1","3","30","250","30","false","rigged_win","","","",""
"390","","pre_stim","single-stim-button","189","293022","0.0-11.1-0.1","columbia-card-task-hot","true","0","29","390","390","0","test","11","2","3","30","250","60","false","rigged_win","","","",""
"342","","pre_stim","single-stim-button","190","293366","0.0-11.2-0.2","columbia-card-task-hot","true","0","30","342","342","0","test","11","3","3","30","250","90","false","rigged_win","","","",""
"358","","pre_stim","single-stim-button","191","293726","0.0-11.3-0.3","columbia-card-task-hot","true","0","31","358","358","0","test","11","4","3","30","250","120","false","rigged_win","","","",""
"390","","pre_stim","single-stim-button","192","294117","0.0-11.4-0.4","columbia-card-task-hot","true","0","32","390","390","0","test","11","5","3","30","250","150","false","rigged_win","","","",""
"535","","pre_stim","single-stim-button","193","294654","0.0-11.5-0.5","columbia-card-task-hot","true","0","24","535","535","0","test","11","6","3","30","250","180","false","rigged_win","","","",""
"662","","pre_stim","single-stim-button","194","295318","0.0-11.6-0.6","columbia-card-task-hot","true","0","23","662","662","0","test","11","7","3","30","250","210","false","rigged_win","","","",""
"415","","pre_stim","single-stim-button","195","295734","0.0-11.7-0.7","columbia-card-task-hot","true","0","22","415","415","0","test","11","8","3","30","250","240","false","rigged_win","","","",""
"502","","pre_stim","single-stim-button","196","296238","0.0-11.8-0.8","columbia-card-task-hot","true","0","21","502","502","0","test","11","9","3","30","250","270","false","rigged_win","","","",""
"990","","pre_stim","single-stim-button","197","297230","0.0-11.9-0.9","columbia-card-task-hot","true","0","20","990","990","0","test","11","10","3","30","250","300","false","rigged_win","","","",""
"942","","pre_stim","single-stim-button","198","298174","0.0-11.10-0.10","columbia-card-task-hot","true","0","27","942","942","0","test","11","11","3","30","250","330","false","rigged_win","","","",""
"886","","pre_stim","single-stim-button","199","299062","0.0-11.11-0.11","columbia-card-task-hot","true","0","15","886","886","0","test","11","12","3","30","250","360","false","rigged_win","","","",""
"534","","pre_stim","single-stim-button","200","299598","0.0-11.12-0.12","columbia-card-task-hot","true","0","16","534","534","0","test","11","13","3","30","250","390","false","rigged_win","","","",""
"1366","","pre_stim","single-stim-button","201","300966","0.0-11.13-0.13","columbia-card-task-hot","true","0","8","1366","1366","0","test","11","14","3","30","250","420","false","rigged_win","","","",""
"1942","","pre_stim","single-stim-button","202","302910","0.0-11.14-0.14","columbia-card-task-hot","true","0","1","1942","1942","0","test","11","15","3","30","250","450","false","rigged_win","","","",""
"478","","pre_stim","single-stim-button","203","303390","0.0-11.15-0.15","columbia-card-task-hot","true","0","9","478","478","0","test","11","16","3","30","250","480","false","rigged_win","","","",""
"1502","","pre_stim","single-stim-button","204","304894","0.0-11.16-0.16","columbia-card-task-hot","true","0","3","1502","1502","0","test","11","17","3","30","250","510","false","rigged_win","","","",""
"694","","pre_stim","single-stim-button","205","305590","0.0-11.17-0.17","columbia-card-task-hot","true","0","10","694","694","0","test","11","18","3","30","250","540","false","rigged_win","","","",""
"606","","pre_stim","single-stim-button","206","306197","0.0-11.18-0.18","columbia-card-task-hot","true","0","11","606","606","0","test","11","19","3","30","250","570","false","rigged_win","","","",""
"1006","","pre_stim","single-stim-button","207","307206","0.0-11.19-0.19","columbia-card-task-hot","true","0","4","1006","1006","0","test","11","20","3","30","250","600","false","rigged_win","","","",""
"526","","pre_stim","single-stim-button","208","307734","0.0-11.20-0.20","columbia-card-task-hot","true","0","12","526","526","0","test","11","21","3","30","250","630","false","rigged_win","","","",""
"1102","","pre_stim","single-stim-button","209","308838","0.0-11.21-0.21","columbia-card-task-hot","true","0","5","1102","1102","0","test","11","22","3","30","250","660","false","rigged_win","","","",""
"2798","","pre_stim","single-stim-button","210","311638","0.0-11.22-0.22","columbia-card-task-hot","true","0","turnButton","2798","2798","0","test","11","22","3","30","250","660","false","rigged_win","","","",""
"3766","","pre_stim","single-stim-button","211","315406","0.0-11.23-0.23","columbia-card-task-hot","true","0","collectButton","3766","3766","0","test","11","23","3","30","250","660","false","rigged_win","","","",""
"6118","","pre_stim","single-stim-button","212","321526","0.0-12.0-0.0","columbia-card-task-hot","true","0","8","6118","6118","0","test","12","1","1","30","750","30","false","rigged_win","","","",""
"358","","pre_stim","single-stim-button","213","321886","0.0-12.1-0.1","columbia-card-task-hot","true","0","16","358","358","0","test","12","2","1","30","750","60","false","rigged_win","","","",""
"879","","pre_stim","single-stim-button","214","322766","0.0-12.2-0.2","columbia-card-task-hot","true","0","32","879","879","0","test","12","3","1","30","750","90","false","rigged_win","","","",""
"430","","pre_stim","single-stim-button","215","323198","0.0-12.3-0.3","columbia-card-task-hot","true","0","24","430","430","0","test","12","4","1","30","750","120","false","rigged_win","","","",""
"734","","pre_stim","single-stim-button","216","323934","0.0-12.4-0.4","columbia-card-task-hot","true","0","23","734","734","0","test","12","5","1","30","750","150","false","rigged_win","","","",""
"470","","pre_stim","single-stim-button","217","324406","0.0-12.5-0.5","columbia-card-task-hot","true","0","15","470","470","0","test","12","6","1","30","750","180","false","rigged_win","","","",""
"382","","pre_stim","single-stim-button","218","324790","0.0-12.6-0.6","columbia-card-task-hot","true","0","7","382","382","0","test","12","7","1","30","750","210","false","rigged_win","","","",""
"391","","pre_stim","single-stim-button","219","325182","0.0-12.7-0.7","columbia-card-task-hot","true","0","6","391","391","0","test","12","8","1","30","750","240","false","rigged_win","","","",""
"390","","pre_stim","single-stim-button","220","325574","0.0-12.8-0.8","columbia-card-task-hot","true","0","14","390","390","0","test","12","9","1","30","750","270","false","rigged_win","","","",""
"382","","pre_stim","single-stim-button","221","325958","0.0-12.9-0.9","columbia-card-task-hot","true","0","22","382","382","0","test","12","10","1","30","750","300","false","rigged_win","","","",""
"478","","pre_stim","single-stim-button","222","326438","0.0-12.10-0.10","columbia-card-task-hot","true","0","30","478","478","0","test","12","11","1","30","750","330","false","rigged_win","","","",""
"430","","pre_stim","single-stim-button","223","326869","0.0-12.11-0.11","columbia-card-task-hot","true","0","31","430","430","0","test","12","12","1","30","750","360","false","rigged_win","","","",""
"615","","pre_stim","single-stim-button","224","327486","0.0-12.12-0.12","columbia-card-task-hot","true","0","29","615","615","0","test","12","13","1","30","750","390","false","rigged_win","","","",""
"1150","","pre_stim","single-stim-button","225","328638","0.0-12.13-0.13","columbia-card-task-hot","true","0","21","1150","1150","0","test","12","14","1","30","750","420","false","rigged_win","","","",""
"398","","pre_stim","single-stim-button","226","329038","0.0-12.14-0.14","columbia-card-task-hot","true","0","13","398","398","0","test","12","15","1","30","750","450","false","rigged_win","","","",""
"462","","pre_stim","single-stim-button","227","329502","0.0-12.15-0.15","columbia-card-task-hot","true","0","5","462","462","0","test","12","16","1","30","750","480","false","rigged_win","","","",""
"726","","pre_stim","single-stim-button","228","330230","0.0-12.16-0.16","columbia-card-task-hot","true","0","4","726","726","0","test","12","17","1","30","750","510","false","rigged_win","","","",""
"383","","pre_stim","single-stim-button","229","330614","0.0-12.17-0.17","columbia-card-task-hot","true","0","12","383","383","0","test","12","18","1","30","750","540","false","rigged_win","","","",""
"406","","pre_stim","single-stim-button","230","331022","0.0-12.18-0.18","columbia-card-task-hot","true","0","20","406","406","0","test","12","19","1","30","750","570","false","rigged_win","","","",""
"494","","pre_stim","single-stim-button","231","331517","0.0-12.19-0.19","columbia-card-task-hot","true","0","28","494","494","0","test","12","20","1","30","750","600","false","rigged_win","","","",""
"607","","pre_stim","single-stim-button","232","332126","0.0-12.20-0.20","columbia-card-task-hot","true","0","27","607","607","0","test","12","21","1","30","750","630","false","rigged_win","","","",""
"414","","pre_stim","single-stim-button","233","332542","0.0-12.21-0.21","columbia-card-task-hot","true","0","19","414","414","0","test","12","22","1","30","750","660","false","rigged_win","","","",""
"398","","pre_stim","single-stim-button","234","332942","0.0-12.22-0.22","columbia-card-task-hot","true","0","11","398","398","0","test","12","23","1","30","750","690","false","rigged_win","","","",""
"422","","pre_stim","single-stim-button","235","333366","0.0-12.23-0.23","columbia-card-task-hot","true","0","3","422","422","0","test","12","24","1","30","750","720","false","rigged_win","","","",""
"510","","pre_stim","single-stim-button","236","333878","0.0-12.24-0.24","columbia-card-task-hot","true","0","2","510","510","0","test","12","25","1","30","750","750","false","rigged_win","","","",""
"430","","pre_stim","single-stim-button","237","334310","0.0-12.25-0.25","columbia-card-task-hot","true","0","10","430","430","0","test","12","26","1","30","750","780","false","rigged_win","","","",""
"406","","pre_stim","single-stim-button","238","334718","0.0-12.26-0.26","columbia-card-task-hot","true","0","9","406","406","0","test","12","27","1","30","750","810","false","rigged_win","","","",""
"415","","pre_stim","single-stim-button","239","335134","0.0-12.27-0.27","columbia-card-task-hot","true","0","1","415","415","0","test","12","28","1","30","750","840","false","rigged_win","","","",""
"1134","","pre_stim","single-stim-button","240","336270","0.0-12.28-0.28","columbia-card-task-hot","true","0","turnButton","1134","1134","0","test","12","28","1","30","750","840","false","rigged_win","","","",""
"3919","","pre_stim","single-stim-button","241","340190","0.0-12.29-0.29","columbia-card-task-hot","true","0","collectButton","3919","3919","0","test","12","29","1","30","750","840","false","rigged_win","","","",""
"6894","","pre_stim","single-stim-button","242","347086","0.0-13.0-0.0","columbia-card-task-hot","true","0","21","6894","6894","0","test","13","1","1","30","750","30","false","rigged_win","","","",""
"502","","pre_stim","single-stim-button","243","347590","0.0-13.1-0.1","columbia-card-task-hot","true","0","20","502","502","0","test","13","2","1","30","750","60","false","rigged_win","","","",""
"550","","pre_stim","single-stim-button","244","348142","0.0-13.2-0.2","columbia-card-task-hot","true","0","22","550","550","0","test","13","3","1","30","750","90","false","rigged_win","","","",""
"367","","pre_stim","single-stim-button","245","348510","0.0-13.3-0.3","columbia-card-task-hot","true","0","23","367","367","0","test","13","4","1","30","750","120","false","rigged_win","","","",""
"359","","pre_stim","single-stim-button","246","348870","0.0-13.4-0.4","columbia-card-task-hot","true","0","24","359","359","0","test","13","5","1","30","750","150","false","rigged_win","","","",""
"429","","pre_stim","single-stim-button","247","349302","0.0-13.5-0.5","columbia-card-task-hot","true","0","16","429","429","0","test","13","6","1","30","750","180","false","rigged_win","","","",""
"351","","pre_stim","single-stim-button","248","349654","0.0-13.6-0.6","columbia-card-task-hot","true","0","15","351","351","0","test","13","7","1","30","750","210","false","rigged_win","","","",""
"310","","pre_stim","single-stim-button","249","349966","0.0-13.7-0.7","columbia-card-task-hot","true","0","14","310","310","0","test","13","8","1","30","750","240","false","rigged_win","","","",""
"526","","pre_stim","single-stim-button","250","350494","0.0-13.8-0.8","columbia-card-task-hot","true","0","13","526","526","0","test","13","9","1","30","750","270","false","rigged_win","","","",""
"814","","pre_stim","single-stim-button","251","351310","0.0-13.9-0.9","columbia-card-task-hot","true","0","4","814","814","0","test","13","10","1","30","750","300","false","rigged_win","","","",""
"534","","pre_stim","single-stim-button","252","351846","0.0-13.10-0.10","columbia-card-task-hot","true","0","12","534","534","0","test","13","11","1","30","750","330","false","rigged_win","","","",""
"510","","pre_stim","single-stim-button","253","352358","0.0-13.11-0.11","columbia-card-task-hot","true","0","5","510","510","0","test","13","12","1","30","750","360","false","rigged_win","","","",""
"366","","pre_stim","single-stim-button","254","352726","0.0-13.12-0.12","columbia-card-task-hot","true","0","6","366","366","0","test","13","13","1","30","750","390","false","rigged_win","","","",""
"486","","pre_stim","single-stim-button","255","353214","0.0-13.13-0.13","columbia-card-task-hot","true","0","7","486","486","0","test","13","14","1","30","750","420","false","rigged_win","","","",""
"334","","pre_stim","single-stim-button","256","353550","0.0-13.14-0.14","columbia-card-task-hot","true","0","8","334","334","0","test","13","15","1","30","750","450","false","rigged_win","","","",""
"782","","pre_stim","single-stim-button","257","354334","0.0-13.15-0.15","columbia-card-task-hot","true","0","3","782","782","0","test","13","16","1","30","750","480","false","rigged_win","","","",""
"446","","pre_stim","single-stim-button","258","354782","0.0-13.16-0.16","columbia-card-task-hot","true","0","11","446","446","0","test","13","17","1","30","750","510","false","rigged_win","","","",""
"406","","pre_stim","single-stim-button","259","355189","0.0-13.17-0.17","columbia-card-task-hot","true","0","19","406","406","0","test","13","18","1","30","750","540","false","rigged_win","","","",""
"392","","pre_stim","single-stim-button","260","355582","0.0-13.18-0.18","columbia-card-task-hot","true","0","18","392","392","0","test","13","19","1","30","750","570","false","rigged_win","","","",""
"446","","pre_stim","single-stim-button","261","356030","0.0-13.19-0.19","columbia-card-task-hot","true","0","10","446","446","0","test","13","20","1","30","750","600","false","rigged_win","","","",""
"430","","pre_stim","single-stim-button","262","356462","0.0-13.20-0.20","columbia-card-task-hot","true","0","2","430","430","0","test","13","21","1","30","750","630","false","rigged_win","","","",""
"398","","pre_stim","single-stim-button","263","356862","0.0-13.21-0.21","columbia-card-task-hot","true","0","1","398","398","0","test","13","22","1","30","750","660","false","rigged_win","","","",""
"502","","pre_stim","single-stim-button","264","357366","0.0-13.22-0.22","columbia-card-task-hot","true","0","9","502","502","0","test","13","23","1","30","750","690","false","rigged_win","","","",""
"439","","pre_stim","single-stim-button","265","357806","0.0-13.23-0.23","columbia-card-task-hot","true","0","17","439","439","0","test","13","24","1","30","750","720","false","rigged_win","","","",""
"445","","pre_stim","single-stim-button","266","358254","0.0-13.24-0.24","columbia-card-task-hot","true","0","25","445","445","0","test","13","25","1","30","750","750","false","rigged_win","","","",""
"510","","pre_stim","single-stim-button","267","358766","0.0-13.25-0.25","columbia-card-task-hot","true","0","26","510","510","0","test","13","26","1","30","750","780","false","rigged_win","","","",""
"1430","","pre_stim","single-stim-button","268","360198","0.0-13.26-0.26","columbia-card-task-hot","true","0","turnButton","1430","1430","0","test","13","26","1","30","750","780","false","rigged_win","","","",""
"3303","","pre_stim","single-stim-button","269","363502","0.0-13.27-0.27","columbia-card-task-hot","true","0","collectButton","3303","3303","0","test","13","27","1","30","750","780","false","rigged_win","","","",""
"8839","","pre_stim","single-stim-button","270","372342","0.0-14.0-0.0","columbia-card-task-hot","true","0","1","8839","8839","0","test","14","1","1","30","750","30","false","rigged_loss","","","",""
"382","","pre_stim","single-stim-button","271","372726","0.0-14.1-0.1","columbia-card-task-hot","true","0","2","382","382","0","test","14","2","1","30","750","60","false","rigged_loss","","","",""
"366","","pre_stim","single-stim-button","272","373094","0.0-14.2-0.2","columbia-card-task-hot","true","0","3","366","366","0","test","14","3","1","30","750","-690","true","rigged_loss","","","",""
"3902","","pre_stim","single-stim-button","273","376998","0.0-14.3-0.3","columbia-card-task-hot","true","0","collectButton","3902","3902","0","test","14","4","1","30","750","-690","true","rigged_loss","","","",""
"7695","","pre_stim","single-stim-button","274","384694","0.0-15.0-0.0","columbia-card-task-hot","true","0","9","7695","7695","0","test","15","1","3","30","750","30","false","rigged_loss","","","",""
"398","","pre_stim","single-stim-button","275","385094","0.0-15.1-0.1","columbia-card-task-hot","true","0","10","398","398","0","test","15","2","3","30","750","60","false","rigged_loss","","","",""
"382","","pre_stim","single-stim-button","276","385478","0.0-15.2-0.2","columbia-card-task-hot","true","0","11","382","382","0","test","15","3","3","30","750","90","false","rigged_loss","","","",""
"349","","pre_stim","single-stim-button","277","385830","0.0-15.3-0.3","columbia-card-task-hot","true","0","12","349","349","0","test","15","4","3","30","750","120","false","rigged_loss","","","",""
"1350","","pre_stim","single-stim-button","278","387182","0.0-15.4-0.4","columbia-card-task-hot","true","0","21","1350","1350","0","test","15","5","3","30","750","150","false","rigged_loss","","","",""
"462","","pre_stim","single-stim-button","279","387646","0.0-15.5-0.5","columbia-card-task-hot","true","0","22","462","462","0","test","15","6","3","30","750","180","false","rigged_loss","","","",""
"406","","pre_stim","single-stim-button","280","388054","0.0-15.6-0.6","columbia-card-task-hot","true","0","23","406","406","0","test","15","7","3","30","750","210","false","rigged_loss","","","",""
"485","","pre_stim","single-stim-button","281","388542","0.0-15.7-0.7","columbia-card-task-hot","true","0","24","485","485","0","test","15","8","3","30","750","-540","true","rigged_loss","","","",""
"4869","","pre_stim","single-stim-button","282","393414","0.0-15.8-0.8","columbia-card-task-hot","true","0","collectButton","4869","4869","0","test","15","9","3","30","750","-540","true","rigged_loss","","","",""
"7062","","pre_stim","single-stim-button","283","400478","0.0-16.0-0.0","columbia-card-task-hot","true","0","1","7062","7062","0","test","16","1","3","30","750","30","false","rigged_loss","","","",""
"509","","pre_stim","single-stim-button","284","400990","0.0-16.1-0.1","columbia-card-task-hot","true","0","2","509","509","0","test","16","2","3","30","750","60","false","rigged_loss","","","",""
"582","","pre_stim","single-stim-button","285","401574","0.0-16.2-0.2","columbia-card-task-hot","true","0","10","582","582","0","test","16","3","3","30","750","90","false","rigged_loss","","","",""
"470","","pre_stim","single-stim-button","286","402046","0.0-16.3-0.3","columbia-card-task-hot","true","0","9","470","470","0","test","16","4","3","30","750","-660","true","rigged_loss","","","",""
"6598","","pre_stim","single-stim-button","287","408646","0.0-16.4-0.4","columbia-card-task-hot","true","0","collectButton","6598","6598","0","test","16","5","3","30","750","-660","true","rigged_loss","","","",""
"9670","","pre_stim","single-stim-button","288","418318","0.0-17.0-0.0","columbia-card-task-hot","true","0","25","9670","9670","0","test","17","1","3","10","250","10","false","rigged_win","","","",""
"566","","pre_stim","single-stim-button","289","418886","0.0-17.1-0.1","columbia-card-task-hot","true","0","26","566","566","0","test","17","2","3","10","250","20","false","rigged_win","","","",""
"541","","pre_stim","single-stim-button","290","419430","0.0-17.2-0.2","columbia-card-task-hot","true","0","27","541","541","0","test","17","3","3","10","250","30","false","rigged_win","","","",""
"526","","pre_stim","single-stim-button","291","419957","0.0-17.3-0.3","columbia-card-task-hot","true","0","28","526","526","0","test","17","4","3","10","250","40","false","rigged_win","","","",""
"1078","","pre_stim","single-stim-button","292","421038","0.0-17.4-0.4","columbia-card-task-hot","true","0","29","1078","1078","0","test","17","5","3","10","250","50","false","rigged_win","","","",""
"2438","","pre_stim","single-stim-button","293","423478","0.0-17.5-0.5","columbia-card-task-hot","true","0","17","2438","2438","0","test","17","6","3","10","250","60","false","rigged_win","","","",""
"918","","pre_stim","single-stim-button","294","424398","0.0-17.6-0.6","columbia-card-task-hot","true","0","19","918","918","0","test","17","7","3","10","250","70","false","rigged_win","","","",""
"598","","pre_stim","single-stim-button","295","424998","0.0-17.7-0.7","columbia-card-task-hot","true","0","20","598","598","0","test","17","8","3","10","250","80","false","rigged_win","","","",""
"846","","pre_stim","single-stim-button","296","425846","0.0-17.8-0.8","columbia-card-task-hot","true","0","21","846","846","0","test","17","9","3","10","250","90","false","rigged_win","","","",""
"3078","","pre_stim","single-stim-button","297","428926","0.0-17.9-0.9","columbia-card-task-hot","true","0","turnButton","3078","3078","0","test","17","9","3","10","250","90","false","rigged_win","","","",""
"3493","","pre_stim","single-stim-button","298","432422","0.0-17.10-0.10","columbia-card-task-hot","true","0","collectButton","3493","3493","0","test","17","10","3","10","250","90","false","rigged_win","","","",""
"6110","","pre_stim","single-stim-button","299","438534","0.0-18.0-0.0","columbia-card-task-hot","true","0","16","6110","6110","0","test","18","1","3","10","250","10","false","rigged_loss","","","",""
"454","","pre_stim","single-stim-button","300","438990","0.0-18.1-0.1","columbia-card-task-hot","true","0","24","454","454","0","test","18","2","3","10","250","20","false","rigged_loss","","","",""
"1206","","pre_stim","single-stim-button","301","440198","0.0-18.2-0.2","columbia-card-task-hot","true","0","32","1206","1206","0","test","18","3","3","10","250","30","false","rigged_loss","","","",""
"446","","pre_stim","single-stim-button","302","440646","0.0-18.3-0.3","columbia-card-task-hot","true","0","31","446","446","0","test","18","4","3","10","250","40","false","rigged_loss","","","",""
"478","","pre_stim","single-stim-button","303","441126","0.0-18.4-0.4","columbia-card-task-hot","true","0","23","478","478","0","test","18","5","3","10","250","50","false","rigged_loss","","","",""
"1958","","pre_stim","single-stim-button","304","443086","0.0-18.5-0.5","columbia-card-task-hot","true","0","8","1958","1958","0","test","18","6","3","10","250","60","false","rigged_loss","","","",""
"1606","","pre_stim","single-stim-button","305","444693","0.0-18.6-0.6","columbia-card-task-hot","true","0","6","1606","1606","0","test","18","7","3","10","250","70","false","rigged_loss","","","",""
"2718","","pre_stim","single-stim-button","306","447414","0.0-18.7-0.7","columbia-card-task-hot","true","0","5","2718","2718","0","test","18","8","3","10","250","80","false","rigged_loss","","","",""
"606","","pre_stim","single-stim-button","307","448021","0.0-18.8-0.8","columbia-card-task-hot","true","0","4","606","606","0","test","18","9","3","10","250","90","false","rigged_loss","","","",""
"702","","pre_stim","single-stim-button","308","448726","0.0-18.9-0.9","columbia-card-task-hot","true","0","12","702","702","0","test","18","10","3","10","250","-160","true","rigged_loss","","","",""
"5045","","pre_stim","single-stim-button","309","453774","0.0-18.10-0.10","columbia-card-task-hot","true","0","collectButton","5045","5045","0","test","18","11","3","10","250","-160","true","rigged_loss","","","",""
"6638","","pre_stim","single-stim-button","310","460414","0.0-19.0-0.0","columbia-card-task-hot","true","0","28","6638","6638","0","test","19","1","3","10","250","10","false","rigged_win","","","",""
"397","","pre_stim","single-stim-button","311","460814","0.0-19.1-0.1","columbia-card-task-hot","true","0","29","397","397","0","test","19","2","3","10","250","20","false","rigged_win","","","",""
"398","","pre_stim","single-stim-button","312","461214","0.0-19.2-0.2","columbia-card-task-hot","true","0","21","398","398","0","test","19","3","3","10","250","30","false","rigged_win","","","",""
"342","","pre_stim","single-stim-button","313","461558","0.0-19.3-0.3","columbia-card-task-hot","true","0","20","342","342","0","test","19","4","3","10","250","40","false","rigged_win","","","",""
"510","","pre_stim","single-stim-button","314","462070","0.0-19.4-0.4","columbia-card-task-hot","true","0","12","510","510","0","test","19","5","3","10","250","50","false","rigged_win","","","",""
"365","","pre_stim","single-stim-button","315","462437","0.0-19.5-0.5","columbia-card-task-hot","true","0","13","365","365","0","test","19","6","3","10","250","60","false","rigged_win","","","",""
"1334","","pre_stim","single-stim-button","316","463774","0.0-19.6-0.6","columbia-card-task-hot","true","0","4","1334","1334","0","test","19","7","3","10","250","70","false","rigged_win","","","",""
"485","","pre_stim","single-stim-button","317","464262","0.0-19.7-0.7","columbia-card-task-hot","true","0","5","485","485","0","test","19","8","3","10","250","80","false","rigged_win","","","",""
"2333","","pre_stim","single-stim-button","318","466597","0.0-19.8-0.8","columbia-card-task-hot","true","0","27","2333","2333","0","test","19","9","3","10","250","90","false","rigged_win","","","",""
"2230","","pre_stim","single-stim-button","319","468830","0.0-19.9-0.9","columbia-card-task-hot","true","0","9","2230","2230","0","test","19","10","3","10","250","100","false","rigged_win","","","",""
"629","","pre_stim","single-stim-button","320","469462","0.0-19.10-0.10","columbia-card-task-hot","true","0","2","629","629","0","test","19","11","3","10","250","110","false","rigged_win","","","",""
"990","","pre_stim","single-stim-button","321","470454","0.0-19.11-0.11","columbia-card-task-hot","true","0","10","990","990","0","test","19","12","3","10","250","120","false","rigged_win","","","",""
"3214","","pre_stim","single-stim-button","322","473670","0.0-19.12-0.12","columbia-card-task-hot","true","0","turnButton","3214","3214","0","test","19","12","3","10","250","120","false","rigged_win","","","",""
"3453","","pre_stim","single-stim-button","323","477125","0.0-19.13-0.13","columbia-card-task-hot","true","0","collectButton","3453","3453","0","test","19","13","3","10","250","120","false","rigged_win","","","",""
"6814","","pre_stim","single-stim-button","324","483942","0.0-20.0-0.0","columbia-card-task-hot","true","0","1","6814","6814","0","test","20","1","1","30","250","30","false","rigged_win","","","",""
"389","","pre_stim","single-stim-button","325","484333","0.0-20.1-0.1","columbia-card-task-hot","true","0","2","389","389","0","test","20","2","1","30","250","60","false","rigged_win","","","",""
"398","","pre_stim","single-stim-button","326","484734","0.0-20.2-0.2","columbia-card-task-hot","true","0","3","398","398","0","test","20","3","1","30","250","90","false","rigged_win","","","",""
"838","","pre_stim","single-stim-button","327","485574","0.0-20.3-0.3","columbia-card-task-hot","true","0","4","838","838","0","test","20","4","1","30","250","120","false","rigged_win","","","",""
"374","","pre_stim","single-stim-button","328","485949","0.0-20.4-0.4","columbia-card-task-hot","true","0","5","374","374","0","test","20","5","1","30","250","150","false","rigged_win","","","",""
"494","","pre_stim","single-stim-button","329","486446","0.0-20.5-0.5","columbia-card-task-hot","true","0","6","494","494","0","test","20","6","1","30","250","180","false","rigged_win","","","",""
"486","","pre_stim","single-stim-button","330","486934","0.0-20.6-0.6","columbia-card-task-hot","true","0","7","486","486","0","test","20","7","1","30","250","210","false","rigged_win","","","",""
"445","","pre_stim","single-stim-button","331","487382","0.0-20.7-0.7","columbia-card-task-hot","true","0","8","445","445","0","test","20","8","1","30","250","240","false","rigged_win","","","",""
"1750","","pre_stim","single-stim-button","332","489134","0.0-20.8-0.8","columbia-card-task-hot","true","0","9","1750","1750","0","test","20","9","1","30","250","270","false","rigged_win","","","",""
"373","","pre_stim","single-stim-button","333","489510","0.0-20.9-0.9","columbia-card-task-hot","true","0","10","373","373","0","test","20","10","1","30","250","300","false","rigged_win","","","",""
"438","","pre_stim","single-stim-button","334","489949","0.0-20.10-0.10","columbia-card-task-hot","true","0","11","438","438","0","test","20","11","1","30","250","330","false","rigged_win","","","",""
"422","","pre_stim","single-stim-button","335","490374","0.0-20.11-0.11","columbia-card-task-hot","true","0","12","422","422","0","test","20","12","1","30","250","360","false","rigged_win","","","",""
"454","","pre_stim","single-stim-button","336","490830","0.0-20.12-0.12","columbia-card-task-hot","true","0","13","454","454","0","test","20","13","1","30","250","390","false","rigged_win","","","",""
"390","","pre_stim","single-stim-button","337","491222","0.0-20.13-0.13","columbia-card-task-hot","true","0","14","390","390","0","test","20","14","1","30","250","420","false","rigged_win","","","",""
"414","","pre_stim","single-stim-button","338","491638","0.0-20.14-0.14","columbia-card-task-hot","true","0","15","414","414","0","test","20","15","1","30","250","450","false","rigged_win","","","",""
"414","","pre_stim","single-stim-button","339","492054","0.0-20.15-0.15","columbia-card-task-hot","true","0","16","414","414","0","test","20","16","1","30","250","480","false","rigged_win","","","",""
"934","","pre_stim","single-stim-button","340","492990","0.0-20.16-0.16","columbia-card-task-hot","true","0","17","934","934","0","test","20","17","1","30","250","510","false","rigged_win","","","",""
"574","","pre_stim","single-stim-button","341","493566","0.0-20.17-0.17","columbia-card-task-hot","true","0","18","574","574","0","test","20","18","1","30","250","540","false","rigged_win","","","",""
"430","","pre_stim","single-stim-button","342","493997","0.0-20.18-0.18","columbia-card-task-hot","true","0","19","430","430","0","test","20","19","1","30","250","570","false","rigged_win","","","",""
"662","","pre_stim","single-stim-button","343","494662","0.0-20.19-0.19","columbia-card-task-hot","true","0","25","662","662","0","test","20","20","1","30","250","600","false","rigged_win","","","",""
"454","","pre_stim","single-stim-button","344","495118","0.0-20.20-0.20","columbia-card-task-hot","true","0","26","454","454","0","test","20","21","1","30","250","630","false","rigged_win","","","",""
"390","","pre_stim","single-stim-button","345","495509","0.0-20.21-0.21","columbia-card-task-hot","true","0","27","390","390","0","test","20","22","1","30","250","660","false","rigged_win","","","",""
"455","","pre_stim","single-stim-button","346","495965","0.0-20.22-0.22","columbia-card-task-hot","true","0","28","455","455","0","test","20","23","1","30","250","690","false","rigged_win","","","",""
"366","","pre_stim","single-stim-button","347","496333","0.0-20.23-0.23","columbia-card-task-hot","true","0","29","366","366","0","test","20","24","1","30","250","720","false","rigged_win","","","",""
"414","","pre_stim","single-stim-button","348","496749","0.0-20.24-0.24","columbia-card-task-hot","true","0","30","414","414","0","test","20","25","1","30","250","750","false","rigged_win","","","",""
"646","","pre_stim","single-stim-button","349","497397","0.0-20.25-0.25","columbia-card-task-hot","true","0","31","646","646","0","test","20","26","1","30","250","780","false","rigged_win","","","",""
"398","","pre_stim","single-stim-button","350","497798","0.0-20.26-0.26","columbia-card-task-hot","true","0","32","398","398","0","test","20","27","1","30","250","810","false","rigged_win","","","",""
"646","","pre_stim","single-stim-button","351","498446","0.0-20.27-0.27","columbia-card-task-hot","true","0","24","646","646","0","test","20","28","1","30","250","840","false","rigged_win","","","",""
"1358","","pre_stim","single-stim-button","352","499806","0.0-20.28-0.28","columbia-card-task-hot","true","0","turnButton","1358","1358","0","test","20","28","1","30","250","840","false","rigged_win","","","",""
"3582","","pre_stim","single-stim-button","353","503390","0.0-20.29-0.29","columbia-card-task-hot","true","0","collectButton","3582","3582","0","test","20","29","1","30","250","840","false","rigged_win","","","",""
"39269","{""Q0"":""Ich sollte die Roten Karten nicht aufdecken, aber soviele Punkte (gelbe Karten) wie mglich sammeln."",""Q1"":""""}","post task questions","survey-text","354","542662","0.0-21.0","columbia-card-task-hot","true","0","","","","","","","","","","","","","","true","0","",""
"7856","","","poldrack-text","355","551541","0.0-22.0","columbia-card-task-hot","true","0","","","7856","1000","","","","","","","","","","","","<div class = centerbox><p class = center-block-text>Finished with this task.</p></div>","17"
