"rt","responses","trial_id","trial_type","trial_index","time_elapsed","internal_node_id","exp_id","full_screen","focus_shifts","mouse_click","stim_duration","block_duration","timing_post_trial","exp_stage","which_round","num_click_in_round","num_loss_cards","gain_amount","loss_amount","round_points","clicked_on_loss_card","round_type","credit_var","performance_var","text","key_press"
"8204","{""Q0"":""uE2Go""}","pre task questions","survey-text","0","8207","0.0-0.0","columbia-card-task-hot","true","0","","","","","","","","","","","","","","","","",""
"7701","","pre_stim","single-stim-button","1","16910","0.0-1.0-0.0","columbia-card-task-hot","true","0","9","7701","7701","0","test","1","1","1","10","750","10","false","rigged_win","","","",""
"430","","pre_stim","single-stim-button","2","17342","0.0-1.1-0.1","columbia-card-task-hot","true","0","10","430","430","0","test","1","2","1","10","750","20","false","rigged_win","","","",""
"375","","pre_stim","single-stim-button","3","17717","0.0-1.2-0.2","columbia-card-task-hot","true","0","11","375","375","0","test","1","3","1","10","750","30","false","rigged_win","","","",""
"663","","pre_stim","single-stim-button","4","18381","0.0-1.3-0.3","columbia-card-task-hot","true","0","13","663","663","0","test","1","4","1","10","750","40","false","rigged_win","","","",""
"536","","pre_stim","single-stim-button","5","18917","0.0-1.4-0.4","columbia-card-task-hot","true","0","12","536","536","0","test","1","5","1","10","750","50","false","rigged_win","","","",""
"664","","pre_stim","single-stim-button","6","19581","0.0-1.5-0.5","columbia-card-task-hot","true","0","14","664","664","0","test","1","6","1","10","750","60","false","rigged_win","","","",""
"656","","pre_stim","single-stim-button","7","20237","0.0-1.6-0.6","columbia-card-task-hot","true","0","16","656","656","0","test","1","7","1","10","750","70","false","rigged_win","","","",""
"536","","pre_stim","single-stim-button","8","20773","0.0-1.7-0.7","columbia-card-task-hot","true","0","15","536","536","0","test","1","8","1","10","750","80","false","rigged_win","","","",""
"439","","pre_stim","single-stim-button","9","21213","0.0-1.8-0.8","columbia-card-task-hot","true","0","24","439","439","0","test","1","9","1","10","750","90","false","rigged_win","","","",""
"351","","pre_stim","single-stim-button","10","21565","0.0-1.9-0.9","columbia-card-task-hot","true","0","23","351","351","0","test","1","10","1","10","750","100","false","rigged_win","","","",""
"375","","pre_stim","single-stim-button","11","21941","0.0-1.10-0.10","columbia-card-task-hot","true","0","22","375","375","0","test","1","11","1","10","750","110","false","rigged_win","","","",""
"543","","pre_stim","single-stim-button","12","22486","0.0-1.11-0.11","columbia-card-task-hot","true","0","21","543","543","0","test","1","12","1","10","750","120","false","rigged_win","","","",""
"735","","pre_stim","single-stim-button","13","23221","0.0-1.12-0.12","columbia-card-task-hot","true","0","20","735","735","0","test","1","13","1","10","750","130","false","rigged_win","","","",""
"607","","pre_stim","single-stim-button","14","23830","0.0-1.13-0.13","columbia-card-task-hot","true","0","19","607","607","0","test","1","14","1","10","750","140","false","rigged_win","","","",""
"391","","pre_stim","single-stim-button","15","24222","0.0-1.14-0.14","columbia-card-task-hot","true","0","18","391","391","0","test","1","15","1","10","750","150","false","rigged_win","","","",""
"519","","pre_stim","single-stim-button","16","24741","0.0-1.15-0.15","columbia-card-task-hot","true","0","17","519","519","0","test","1","16","1","10","750","160","false","rigged_win","","","",""
"704","","pre_stim","single-stim-button","17","25446","0.0-1.16-0.16","columbia-card-task-hot","true","0","1","704","704","0","test","1","17","1","10","750","170","false","rigged_win","","","",""
"415","","pre_stim","single-stim-button","18","25862","0.0-1.17-0.17","columbia-card-task-hot","true","0","2","415","415","0","test","1","18","1","10","750","180","false","rigged_win","","","",""
"383","","pre_stim","single-stim-button","19","26245","0.0-1.18-0.18","columbia-card-task-hot","true","0","3","383","383","0","test","1","19","1","10","750","190","false","rigged_win","","","",""
"407","","pre_stim","single-stim-button","20","26654","0.0-1.19-0.19","columbia-card-task-hot","true","0","4","407","407","0","test","1","20","1","10","750","200","false","rigged_win","","","",""
"655","","pre_stim","single-stim-button","21","27309","0.0-1.20-0.20","columbia-card-task-hot","true","0","32","655","655","0","test","1","21","1","10","750","210","false","rigged_win","","","",""
"383","","pre_stim","single-stim-button","22","27693","0.0-1.21-0.21","columbia-card-task-hot","true","0","31","383","383","0","test","1","22","1","10","750","220","false","rigged_win","","","",""
"567","","pre_stim","single-stim-button","23","28261","0.0-1.22-0.22","columbia-card-task-hot","true","0","30","567","567","0","test","1","23","1","10","750","230","false","rigged_win","","","",""
"391","","pre_stim","single-stim-button","24","28653","0.0-1.23-0.23","columbia-card-task-hot","true","0","29","391","391","0","test","1","24","1","10","750","240","false","rigged_win","","","",""
"1055","","pre_stim","single-stim-button","25","29709","0.0-1.24-0.24","columbia-card-task-hot","true","0","turnButton","1055","1055","0","test","1","24","1","10","750","240","false","rigged_win","","","",""
"3527","","pre_stim","single-stim-button","26","33237","0.0-1.25-0.25","columbia-card-task-hot","true","0","collectButton","3527","3527","0","test","1","25","1","10","750","240","false","rigged_win","","","",""
"7119","","pre_stim","single-stim-button","27","40358","0.0-2.0-0.0","columbia-card-task-hot","true","0","22","7119","7119","0","test","2","1","3","30","750","30","false","rigged_loss","","","",""
"447","","pre_stim","single-stim-button","28","40805","0.0-2.1-0.1","columbia-card-task-hot","true","0","23","447","447","0","test","2","2","3","30","750","60","false","rigged_loss","","","",""
"416","","pre_stim","single-stim-button","29","41221","0.0-2.2-0.2","columbia-card-task-hot","true","0","24","416","416","0","test","2","3","3","30","750","90","false","rigged_loss","","","",""
"519","","pre_stim","single-stim-button","30","41741","0.0-2.3-0.3","columbia-card-task-hot","true","0","15","519","519","0","test","2","4","3","30","750","120","false","rigged_loss","","","",""
"351","","pre_stim","single-stim-button","31","42093","0.0-2.4-0.4","columbia-card-task-hot","true","0","16","351","351","0","test","2","5","3","30","750","-630","true","rigged_loss","","","",""
"4207","","pre_stim","single-stim-button","32","46301","0.0-2.5-0.5","columbia-card-task-hot","true","0","collectButton","4207","4207","0","test","2","6","3","30","750","-630","true","rigged_loss","","","",""
"7216","","pre_stim","single-stim-button","33","53518","0.0-3.0-0.0","columbia-card-task-hot","true","0","10","7216","7216","0","test","3","1","3","10","750","10","false","rigged_win","","","",""
"447","","pre_stim","single-stim-button","34","53965","0.0-3.1-0.1","columbia-card-task-hot","true","0","11","447","447","0","test","3","2","3","10","750","20","false","rigged_win","","","",""
"391","","pre_stim","single-stim-button","35","54357","0.0-3.2-0.2","columbia-card-task-hot","true","0","12","391","391","0","test","3","3","3","10","750","30","false","rigged_win","","","",""
"959","","pre_stim","single-stim-button","36","55317","0.0-3.3-0.3","columbia-card-task-hot","true","0","3","959","959","0","test","3","4","3","10","750","40","false","rigged_win","","","",""
"959","","pre_stim","single-stim-button","37","56278","0.0-3.4-0.4","columbia-card-task-hot","true","0","19","959","959","0","test","3","5","3","10","750","50","false","rigged_win","","","",""
"2719","","pre_stim","single-stim-button","38","58998","0.0-3.5-0.5","columbia-card-task-hot","true","0","22","2719","2719","0","test","3","6","3","10","750","60","false","rigged_win","","","",""
"415","","pre_stim","single-stim-button","39","59414","0.0-3.6-0.6","columbia-card-task-hot","true","0","23","415","415","0","test","3","7","3","10","750","70","false","rigged_win","","","",""
"407","","pre_stim","single-stim-button","40","59821","0.0-3.7-0.7","columbia-card-task-hot","true","0","24","407","407","0","test","3","8","3","10","750","80","false","rigged_win","","","",""
"775","","pre_stim","single-stim-button","41","60598","0.0-3.8-0.8","columbia-card-task-hot","true","0","31","775","775","0","test","3","9","3","10","750","90","false","rigged_win","","","",""
"663","","pre_stim","single-stim-button","42","61262","0.0-3.9-0.9","columbia-card-task-hot","true","0","32","663","663","0","test","3","10","3","10","750","100","false","rigged_win","","","",""
"2215","","pre_stim","single-stim-button","43","63477","0.0-3.10-0.10","columbia-card-task-hot","true","0","turnButton","2215","2215","0","test","3","10","3","10","750","100","false","rigged_win","","","",""
"3895","","pre_stim","single-stim-button","44","67374","0.0-3.11-0.11","columbia-card-task-hot","true","0","collectButton","3895","3895","0","test","3","11","3","10","750","100","false","rigged_win","","","",""
"6367","","pre_stim","single-stim-button","45","73742","0.0-4.0-0.0","columbia-card-task-hot","true","0","9","6367","6367","0","test","4","1","3","10","750","10","false","rigged_loss","","","",""
"415","","pre_stim","single-stim-button","46","74158","0.0-4.1-0.1","columbia-card-task-hot","true","0","10","415","415","0","test","4","2","3","10","750","20","false","rigged_loss","","","",""
"375","","pre_stim","single-stim-button","47","74533","0.0-4.2-0.2","columbia-card-task-hot","true","0","11","375","375","0","test","4","3","3","10","750","30","false","rigged_loss","","","",""
"855","","pre_stim","single-stim-button","48","75390","0.0-4.3-0.3","columbia-card-task-hot","true","0","12","855","855","0","test","4","4","3","10","750","40","false","rigged_loss","","","",""
"511","","pre_stim","single-stim-button","49","75902","0.0-4.4-0.4","columbia-card-task-hot","true","0","13","511","511","0","test","4","5","3","10","750","50","false","rigged_loss","","","",""
"479","","pre_stim","single-stim-button","50","76381","0.0-4.5-0.5","columbia-card-task-hot","true","0","14","479","479","0","test","4","6","3","10","750","60","false","rigged_loss","","","",""
"519","","pre_stim","single-stim-button","51","76901","0.0-4.6-0.6","columbia-card-task-hot","true","0","15","519","519","0","test","4","7","3","10","750","70","false","rigged_loss","","","",""
"919","","pre_stim","single-stim-button","52","77821","0.0-4.7-0.7","columbia-card-task-hot","true","0","16","919","919","0","test","4","8","3","10","750","80","false","rigged_loss","","","",""
"1479","","pre_stim","single-stim-button","53","79302","0.0-4.8-0.8","columbia-card-task-hot","true","0","20","1479","1479","0","test","4","9","3","10","750","90","false","rigged_loss","","","",""
"511","","pre_stim","single-stim-button","54","79814","0.0-4.9-0.9","columbia-card-task-hot","true","0","21","511","511","0","test","4","10","3","10","750","-660","true","rigged_loss","","","",""
"3719","","pre_stim","single-stim-button","55","83533","0.0-4.10-0.10","columbia-card-task-hot","true","0","collectButton","3719","3719","0","test","4","11","3","10","750","-660","true","rigged_loss","","","",""
"6807","","pre_stim","single-stim-button","56","90342","0.0-5.0-0.0","columbia-card-task-hot","true","0","17","6807","6807","0","test","5","1","3","30","750","30","false","rigged_loss","","","",""
"463","","pre_stim","single-stim-button","57","90806","0.0-5.1-0.1","columbia-card-task-hot","true","0","18","463","463","0","test","5","2","3","30","750","60","false","rigged_loss","","","",""
"415","","pre_stim","single-stim-button","58","91221","0.0-5.2-0.2","columbia-card-task-hot","true","0","19","415","415","0","test","5","3","3","30","750","90","false","rigged_loss","","","",""
"1151","","pre_stim","single-stim-button","59","92374","0.0-5.3-0.3","columbia-card-task-hot","true","0","26","1151","1151","0","test","5","4","3","30","750","120","false","rigged_loss","","","",""
"1151","","pre_stim","single-stim-button","60","93526","0.0-5.4-0.4","columbia-card-task-hot","true","0","25","1151","1151","0","test","5","5","3","30","750","150","false","rigged_loss","","","",""
"839","","pre_stim","single-stim-button","61","94366","0.0-5.5-0.5","columbia-card-task-hot","true","0","27","839","839","0","test","5","6","3","30","750","180","false","rigged_loss","","","",""
"999","","pre_stim","single-stim-button","62","95366","0.0-5.6-0.6","columbia-card-task-hot","true","0","11","999","999","0","test","5","7","3","30","750","210","false","rigged_loss","","","",""
"775","","pre_stim","single-stim-button","63","96142","0.0-5.7-0.7","columbia-card-task-hot","true","0","10","775","775","0","test","5","8","3","30","750","-540","true","rigged_loss","","","",""
"4263","","pre_stim","single-stim-button","64","100406","0.0-5.8-0.8","columbia-card-task-hot","true","0","collectButton","4263","4263","0","test","5","9","3","30","750","-540","true","rigged_loss","","","",""
"7207","","pre_stim","single-stim-button","65","107614","0.0-6.0-0.0","columbia-card-task-hot","true","0","9","7207","7207","0","test","6","1","1","30","250","30","false","rigged_loss","","","",""
"527","","pre_stim","single-stim-button","66","108142","0.0-6.1-0.1","columbia-card-task-hot","true","0","10","527","527","0","test","6","2","1","30","250","60","false","rigged_loss","","","",""
"447","","pre_stim","single-stim-button","67","108589","0.0-6.2-0.2","columbia-card-task-hot","true","0","11","447","447","0","test","6","3","1","30","250","90","false","rigged_loss","","","",""
"415","","pre_stim","single-stim-button","68","109005","0.0-6.3-0.3","columbia-card-task-hot","true","0","12","415","415","0","test","6","4","1","30","250","120","false","rigged_loss","","","",""
"1071","","pre_stim","single-stim-button","69","110078","0.0-6.4-0.4","columbia-card-task-hot","true","0","17","1071","1071","0","test","6","5","1","30","250","150","false","rigged_loss","","","",""
"375","","pre_stim","single-stim-button","70","110453","0.0-6.5-0.5","columbia-card-task-hot","true","0","18","375","375","0","test","6","6","1","30","250","-100","true","rigged_loss","","","",""
"2727","","pre_stim","single-stim-button","71","113181","0.0-6.6-0.6","columbia-card-task-hot","true","0","collectButton","2727","2727","0","test","6","7","1","30","250","-100","true","rigged_loss","","","",""
"7095","","pre_stim","single-stim-button","72","120277","0.0-7.0-0.0","columbia-card-task-hot","true","0","1","7095","7095","0","test","7","1","1","10","250","10","false","rigged_win","","","",""
"342","","pre_stim","single-stim-button","73","120621","0.0-7.1-0.1","columbia-card-task-hot","true","0","2","342","342","0","test","7","2","1","10","250","20","false","rigged_win","","","",""
"304","","pre_stim","single-stim-button","74","120925","0.0-7.2-0.2","columbia-card-task-hot","true","0","3","304","304","0","test","7","3","1","10","250","30","false","rigged_win","","","",""
"375","","pre_stim","single-stim-button","75","121302","0.0-7.3-0.3","columbia-card-task-hot","true","0","4","375","375","0","test","7","4","1","10","250","40","false","rigged_win","","","",""
"350","","pre_stim","single-stim-button","76","121653","0.0-7.4-0.4","columbia-card-task-hot","true","0","5","350","350","0","test","7","5","1","10","250","50","false","rigged_win","","","",""
"487","","pre_stim","single-stim-button","77","122141","0.0-7.5-0.5","columbia-card-task-hot","true","0","6","487","487","0","test","7","6","1","10","250","60","false","rigged_win","","","",""
"455","","pre_stim","single-stim-button","78","122597","0.0-7.6-0.6","columbia-card-task-hot","true","0","7","455","455","0","test","7","7","1","10","250","70","false","rigged_win","","","",""
"399","","pre_stim","single-stim-button","79","122997","0.0-7.7-0.7","columbia-card-task-hot","true","0","8","399","399","0","test","7","8","1","10","250","80","false","rigged_win","","","",""
"1151","","pre_stim","single-stim-button","80","124149","0.0-7.8-0.8","columbia-card-task-hot","true","0","16","1151","1151","0","test","7","9","1","10","250","90","false","rigged_win","","","",""
"335","","pre_stim","single-stim-button","81","124485","0.0-7.9-0.9","columbia-card-task-hot","true","0","15","335","335","0","test","7","10","1","10","250","100","false","rigged_win","","","",""
"375","","pre_stim","single-stim-button","82","124861","0.0-7.10-0.10","columbia-card-task-hot","true","0","14","375","375","0","test","7","11","1","10","250","110","false","rigged_win","","","",""
"495","","pre_stim","single-stim-button","83","125358","0.0-7.11-0.11","columbia-card-task-hot","true","0","13","495","495","0","test","7","12","1","10","250","120","false","rigged_win","","","",""
"439","","pre_stim","single-stim-button","84","125797","0.0-7.12-0.12","columbia-card-task-hot","true","0","12","439","439","0","test","7","13","1","10","250","130","false","rigged_win","","","",""
"623","","pre_stim","single-stim-button","85","126421","0.0-7.13-0.13","columbia-card-task-hot","true","0","11","623","623","0","test","7","14","1","10","250","140","false","rigged_win","","","",""
"639","","pre_stim","single-stim-button","86","127061","0.0-7.14-0.14","columbia-card-task-hot","true","0","10","639","639","0","test","7","15","1","10","250","150","false","rigged_win","","","",""
"463","","pre_stim","single-stim-button","87","127525","0.0-7.15-0.15","columbia-card-task-hot","true","0","9","463","463","0","test","7","16","1","10","250","160","false","rigged_win","","","",""
"942","","pre_stim","single-stim-button","88","128469","0.0-7.16-0.16","columbia-card-task-hot","true","0","21","942","942","0","test","7","17","1","10","250","170","false","rigged_win","","","",""
"455","","pre_stim","single-stim-button","89","128925","0.0-7.17-0.17","columbia-card-task-hot","true","0","22","455","455","0","test","7","18","1","10","250","180","false","rigged_win","","","",""
"415","","pre_stim","single-stim-button","90","129341","0.0-7.18-0.18","columbia-card-task-hot","true","0","23","415","415","0","test","7","19","1","10","250","190","false","rigged_win","","","",""
"671","","pre_stim","single-stim-button","91","130013","0.0-7.19-0.19","columbia-card-task-hot","true","0","24","671","671","0","test","7","20","1","10","250","200","false","rigged_win","","","",""
"1007","","pre_stim","single-stim-button","92","131021","0.0-7.20-0.20","columbia-card-task-hot","true","0","31","1007","1007","0","test","7","21","1","10","250","210","false","rigged_win","","","",""
"438","","pre_stim","single-stim-button","93","131461","0.0-7.21-0.21","columbia-card-task-hot","true","0","32","438","438","0","test","7","22","1","10","250","220","false","rigged_win","","","",""
"1495","","pre_stim","single-stim-button","94","132957","0.0-7.22-0.22","columbia-card-task-hot","true","0","turnButton","1495","1495","0","test","7","22","1","10","250","220","false","rigged_win","","","",""
"3046","","pre_stim","single-stim-button","95","136005","0.0-7.23-0.23","columbia-card-task-hot","true","0","collectButton","3046","3046","0","test","7","23","1","10","250","220","false","rigged_win","","","",""
"7000","","pre_stim","single-stim-button","96","143006","0.0-8.0-0.0","columbia-card-task-hot","true","0","8","7000","7000","0","test","8","1","3","30","250","30","false","rigged_win","","","",""
"495","","pre_stim","single-stim-button","97","143501","0.0-8.1-0.1","columbia-card-task-hot","true","0","16","495","495","0","test","8","2","3","30","250","60","false","rigged_win","","","",""
"575","","pre_stim","single-stim-button","98","144077","0.0-8.2-0.2","columbia-card-task-hot","true","0","24","575","575","0","test","8","3","3","30","250","90","false","rigged_win","","","",""
"4695","","pre_stim","single-stim-button","99","148773","0.0-8.3-0.3","columbia-card-task-hot","true","0","11","4695","4695","0","test","8","4","3","30","250","120","false","rigged_win","","","",""
"495","","pre_stim","single-stim-button","100","149269","0.0-8.4-0.4","columbia-card-task-hot","true","0","12","495","495","0","test","8","5","3","30","250","150","false","rigged_win","","","",""
"510","","pre_stim","single-stim-button","101","149781","0.0-8.5-0.5","columbia-card-task-hot","true","0","13","510","510","0","test","8","6","3","30","250","180","false","rigged_win","","","",""
"1127","","pre_stim","single-stim-button","102","150909","0.0-8.6-0.6","columbia-card-task-hot","true","0","19","1127","1127","0","test","8","7","3","30","250","210","false","rigged_win","","","",""
"478","","pre_stim","single-stim-button","103","151389","0.0-8.7-0.7","columbia-card-task-hot","true","0","20","478","478","0","test","8","8","3","30","250","240","false","rigged_win","","","",""
"463","","pre_stim","single-stim-button","104","151853","0.0-8.8-0.8","columbia-card-task-hot","true","0","21","463","463","0","test","8","9","3","30","250","270","false","rigged_win","","","",""
"3679","","pre_stim","single-stim-button","105","155533","0.0-8.9-0.9","columbia-card-task-hot","true","0","turnButton","3679","3679","0","test","8","9","3","30","250","270","false","rigged_win","","","",""
"3527","","pre_stim","single-stim-button","106","159061","0.0-8.10-0.10","columbia-card-task-hot","true","0","collectButton","3527","3527","0","test","8","10","3","30","250","270","false","rigged_win","","","",""
"6855","","pre_stim","single-stim-button","107","165918","0.0-9.0-0.0","columbia-card-task-hot","true","0","6","6855","6855","0","test","9","1","3","30","750","30","false","rigged_win","","","",""
"422","","pre_stim","single-stim-button","108","166341","0.0-9.1-0.1","columbia-card-task-hot","true","0","7","422","422","0","test","9","2","3","30","750","60","false","rigged_win","","","",""
"400","","pre_stim","single-stim-button","109","166741","0.0-9.2-0.2","columbia-card-task-hot","true","0","8","400","400","0","test","9","3","3","30","750","90","false","rigged_win","","","",""
"487","","pre_stim","single-stim-button","110","167229","0.0-9.3-0.3","columbia-card-task-hot","true","0","14","487","487","0","test","9","4","3","30","750","120","false","rigged_win","","","",""
"398","","pre_stim","single-stim-button","111","167629","0.0-9.4-0.4","columbia-card-task-hot","true","0","15","398","398","0","test","9","5","3","30","750","150","false","rigged_win","","","",""
"431","","pre_stim","single-stim-button","112","168061","0.0-9.5-0.5","columbia-card-task-hot","true","0","16","431","431","0","test","9","6","3","30","750","180","false","rigged_win","","","",""
"1375","","pre_stim","single-stim-button","113","169438","0.0-9.6-0.6","columbia-card-task-hot","true","0","1","1375","1375","0","test","9","7","3","30","750","210","false","rigged_win","","","",""
"382","","pre_stim","single-stim-button","114","169821","0.0-9.7-0.7","columbia-card-task-hot","true","0","2","382","382","0","test","9","8","3","30","750","240","false","rigged_win","","","",""
"391","","pre_stim","single-stim-button","115","170213","0.0-9.8-0.8","columbia-card-task-hot","true","0","3","391","391","0","test","9","9","3","30","750","270","false","rigged_win","","","",""
"1919","","pre_stim","single-stim-button","116","172133","0.0-9.9-0.9","columbia-card-task-hot","true","0","30","1919","1919","0","test","9","10","3","30","750","300","false","rigged_win","","","",""
"543","","pre_stim","single-stim-button","117","172677","0.0-9.10-0.10","columbia-card-task-hot","true","0","31","543","543","0","test","9","11","3","30","750","330","false","rigged_win","","","",""
"807","","pre_stim","single-stim-button","118","173485","0.0-9.11-0.11","columbia-card-task-hot","true","0","32","807","807","0","test","9","12","3","30","750","360","false","rigged_win","","","",""
"2055","","pre_stim","single-stim-button","119","175541","0.0-9.12-0.12","columbia-card-task-hot","true","0","17","2055","2055","0","test","9","13","3","30","750","390","false","rigged_win","","","",""
"471","","pre_stim","single-stim-button","120","176013","0.0-9.13-0.13","columbia-card-task-hot","true","0","25","471","471","0","test","9","14","3","30","750","420","false","rigged_win","","","",""
"1199","","pre_stim","single-stim-button","121","177213","0.0-9.14-0.14","columbia-card-task-hot","true","0","turnButton","1199","1199","0","test","9","14","3","30","750","420","false","rigged_win","","","",""
"3414","","pre_stim","single-stim-button","122","180629","0.0-9.15-0.15","columbia-card-task-hot","true","0","collectButton","3414","3414","0","test","9","15","3","30","750","420","false","rigged_win","","","",""
"6591","","pre_stim","single-stim-button","123","187221","0.0-10.0-0.0","columbia-card-task-hot","true","0","9","6591","6591","0","test","10","1","1","30","750","30","false","rigged_win","","","",""
"326","","pre_stim","single-stim-button","124","187549","0.0-10.1-0.1","columbia-card-task-hot","true","0","10","326","326","0","test","10","2","1","30","750","60","false","rigged_win","","","",""
"383","","pre_stim","single-stim-button","125","187933","0.0-10.2-0.2","columbia-card-task-hot","true","0","11","383","383","0","test","10","3","1","30","750","90","false","rigged_win","","","",""
"326","","pre_stim","single-stim-button","126","188261","0.0-10.3-0.3","columbia-card-task-hot","true","0","12","326","326","0","test","10","4","1","30","750","120","false","rigged_win","","","",""
"414","","pre_stim","single-stim-button","127","188677","0.0-10.4-0.4","columbia-card-task-hot","true","0","13","414","414","0","test","10","5","1","30","750","150","false","rigged_win","","","",""
"1438","","pre_stim","single-stim-button","128","190117","0.0-10.5-0.5","columbia-card-task-hot","true","0","14","1438","1438","0","test","10","6","1","30","750","180","false","rigged_win","","","",""
"399","","pre_stim","single-stim-button","129","190516","0.0-10.6-0.6","columbia-card-task-hot","true","0","15","399","399","0","test","10","7","1","30","750","210","false","rigged_win","","","",""
"416","","pre_stim","single-stim-button","130","190933","0.0-10.7-0.7","columbia-card-task-hot","true","0","16","416","416","0","test","10","8","1","30","750","240","false","rigged_win","","","",""
"438","","pre_stim","single-stim-button","131","191372","0.0-10.8-0.8","columbia-card-task-hot","true","0","8","438","438","0","test","10","9","1","30","750","270","false","rigged_win","","","",""
"351","","pre_stim","single-stim-button","132","191725","0.0-10.9-0.9","columbia-card-task-hot","true","0","7","351","351","0","test","10","10","1","30","750","300","false","rigged_win","","","",""
"487","","pre_stim","single-stim-button","133","192213","0.0-10.10-0.10","columbia-card-task-hot","true","0","6","487","487","0","test","10","11","1","30","750","330","false","rigged_win","","","",""
"543","","pre_stim","single-stim-button","134","192757","0.0-10.11-0.11","columbia-card-task-hot","true","0","5","543","543","0","test","10","12","1","30","750","360","false","rigged_win","","","",""
"462","","pre_stim","single-stim-button","135","193221","0.0-10.12-0.12","columbia-card-task-hot","true","0","4","462","462","0","test","10","13","1","30","750","390","false","rigged_win","","","",""
"487","","pre_stim","single-stim-button","136","193709","0.0-10.13-0.13","columbia-card-task-hot","true","0","3","487","487","0","test","10","14","1","30","750","420","false","rigged_win","","","",""
"494","","pre_stim","single-stim-button","137","194205","0.0-10.14-0.14","columbia-card-task-hot","true","0","2","494","494","0","test","10","15","1","30","750","450","false","rigged_win","","","",""
"454","","pre_stim","single-stim-button","138","194661","0.0-10.15-0.15","columbia-card-task-hot","true","0","1","454","454","0","test","10","16","1","30","750","480","false","rigged_win","","","",""
"759","","pre_stim","single-stim-button","139","195421","0.0-10.16-0.16","columbia-card-task-hot","true","0","17","759","759","0","test","10","17","1","30","750","510","false","rigged_win","","","",""
"398","","pre_stim","single-stim-button","140","195821","0.0-10.17-0.17","columbia-card-task-hot","true","0","18","398","398","0","test","10","18","1","30","750","540","false","rigged_win","","","",""
"414","","pre_stim","single-stim-button","141","196237","0.0-10.18-0.18","columbia-card-task-hot","true","0","19","414","414","0","test","10","19","1","30","750","570","false","rigged_win","","","",""
"743","","pre_stim","single-stim-button","142","196981","0.0-10.19-0.19","columbia-card-task-hot","true","0","25","743","743","0","test","10","20","1","30","750","600","false","rigged_win","","","",""
"406","","pre_stim","single-stim-button","143","197389","0.0-10.20-0.20","columbia-card-task-hot","true","0","26","406","406","0","test","10","21","1","30","750","630","false","rigged_win","","","",""
"446","","pre_stim","single-stim-button","144","197837","0.0-10.21-0.21","columbia-card-task-hot","true","0","27","446","446","0","test","10","22","1","30","750","660","false","rigged_win","","","",""
"415","","pre_stim","single-stim-button","145","198253","0.0-10.22-0.22","columbia-card-task-hot","true","0","28","415","415","0","test","10","23","1","30","750","690","false","rigged_win","","","",""
"518","","pre_stim","single-stim-button","146","198773","0.0-10.23-0.23","columbia-card-task-hot","true","0","29","518","518","0","test","10","24","1","30","750","720","false","rigged_win","","","",""
"640","","pre_stim","single-stim-button","147","199413","0.0-10.24-0.24","columbia-card-task-hot","true","0","30","640","640","0","test","10","25","1","30","750","750","false","rigged_win","","","",""
"743","","pre_stim","single-stim-button","148","200157","0.0-10.25-0.25","columbia-card-task-hot","true","0","31","743","743","0","test","10","26","1","30","750","780","false","rigged_win","","","",""
"566","","pre_stim","single-stim-button","149","200725","0.0-10.26-0.26","columbia-card-task-hot","true","0","32","566","566","0","test","10","27","1","30","750","810","false","rigged_win","","","",""
"1494","","pre_stim","single-stim-button","150","202221","0.0-10.27-0.27","columbia-card-task-hot","true","0","23","1494","1494","0","test","10","28","1","30","750","840","false","rigged_win","","","",""
"447","","pre_stim","single-stim-button","151","202669","0.0-10.28-0.28","columbia-card-task-hot","true","0","24","447","447","0","test","10","29","1","30","750","870","false","rigged_win","","","",""
"1287","","pre_stim","single-stim-button","152","203957","0.0-10.29-0.29","columbia-card-task-hot","true","0","turnButton","1287","1287","0","test","10","29","1","30","750","870","false","rigged_win","","","",""
"3414","","pre_stim","single-stim-button","153","207372","0.0-10.30-0.30","columbia-card-task-hot","true","0","collectButton","3414","3414","0","test","10","30","1","30","750","870","false","rigged_win","","","",""
"6967","","pre_stim","single-stim-button","154","214341","0.0-11.0-0.0","columbia-card-task-hot","true","0","8","6967","6967","0","test","11","1","3","10","250","10","false","rigged_win","","","",""
"439","","pre_stim","single-stim-button","155","214781","0.0-11.1-0.1","columbia-card-task-hot","true","0","16","439","439","0","test","11","2","3","10","250","20","false","rigged_win","","","",""
"471","","pre_stim","single-stim-button","156","215253","0.0-11.2-0.2","columbia-card-task-hot","true","0","24","471","471","0","test","11","3","3","10","250","30","false","rigged_win","","","",""
"695","","pre_stim","single-stim-button","157","215949","0.0-11.3-0.3","columbia-card-task-hot","true","0","32","695","695","0","test","11","4","3","10","250","40","false","rigged_win","","","",""
"639","","pre_stim","single-stim-button","158","216589","0.0-11.4-0.4","columbia-card-task-hot","true","0","15","639","639","0","test","11","5","3","10","250","50","false","rigged_win","","","",""
"2254","","pre_stim","single-stim-button","159","218845","0.0-11.5-0.5","columbia-card-task-hot","true","0","1","2254","2254","0","test","11","6","3","10","250","60","false","rigged_win","","","",""
"398","","pre_stim","single-stim-button","160","219244","0.0-11.6-0.6","columbia-card-task-hot","true","0","2","398","398","0","test","11","7","3","10","250","70","false","rigged_win","","","",""
"399","","pre_stim","single-stim-button","161","219645","0.0-11.7-0.7","columbia-card-task-hot","true","0","3","399","399","0","test","11","8","3","10","250","80","false","rigged_win","","","",""
"486","","pre_stim","single-stim-button","162","220133","0.0-11.8-0.8","columbia-card-task-hot","true","0","10","486","486","0","test","11","9","3","10","250","90","false","rigged_win","","","",""
"430","","pre_stim","single-stim-button","163","220565","0.0-11.9-0.9","columbia-card-task-hot","true","0","11","430","430","0","test","11","10","3","10","250","100","false","rigged_win","","","",""
"1446","","pre_stim","single-stim-button","164","222013","0.0-11.10-0.10","columbia-card-task-hot","true","0","19","1446","1446","0","test","11","11","3","10","250","110","false","rigged_win","","","",""
"943","","pre_stim","single-stim-button","165","222957","0.0-11.11-0.11","columbia-card-task-hot","true","0","27","943","943","0","test","11","12","3","10","250","120","false","rigged_win","","","",""
"615","","pre_stim","single-stim-button","166","223573","0.0-11.12-0.12","columbia-card-task-hot","true","0","20","615","615","0","test","11","13","3","10","250","130","false","rigged_win","","","",""
"406","","pre_stim","single-stim-button","167","223981","0.0-11.13-0.13","columbia-card-task-hot","true","0","28","406","406","0","test","11","14","3","10","250","140","false","rigged_win","","","",""
"518","","pre_stim","single-stim-button","168","224501","0.0-11.14-0.14","columbia-card-task-hot","true","0","21","518","518","0","test","11","15","3","10","250","150","false","rigged_win","","","",""
"438","","pre_stim","single-stim-button","169","224941","0.0-11.15-0.15","columbia-card-task-hot","true","0","29","438","438","0","test","11","16","3","10","250","160","false","rigged_win","","","",""
"550","","pre_stim","single-stim-button","170","225493","0.0-11.16-0.16","columbia-card-task-hot","true","0","22","550","550","0","test","11","17","3","10","250","170","false","rigged_win","","","",""
"454","","pre_stim","single-stim-button","171","225949","0.0-11.17-0.17","columbia-card-task-hot","true","0","30","454","454","0","test","11","18","3","10","250","180","false","rigged_win","","","",""
"2823","","pre_stim","single-stim-button","172","228773","0.0-11.18-0.18","columbia-card-task-hot","true","0","13","2823","2823","0","test","11","19","3","10","250","190","false","rigged_win","","","",""
"367","","pre_stim","single-stim-button","173","229141","0.0-11.19-0.19","columbia-card-task-hot","true","0","14","367","367","0","test","11","20","3","10","250","200","false","rigged_win","","","",""
"1142","","pre_stim","single-stim-button","174","230285","0.0-11.20-0.20","columbia-card-task-hot","true","0","turnButton","1142","1142","0","test","11","20","3","10","250","200","false","rigged_win","","","",""
"3486","","pre_stim","single-stim-button","175","233773","0.0-11.21-0.21","columbia-card-task-hot","true","0","collectButton","3486","3486","0","test","11","21","3","10","250","200","false","rigged_win","","","",""
"6775","","pre_stim","single-stim-button","176","240550","0.0-12.0-0.0","columbia-card-task-hot","true","0","1","6775","6775","0","test","12","1","3","30","750","30","false","rigged_win","","","",""
"398","","pre_stim","single-stim-button","177","240949","0.0-12.1-0.1","columbia-card-task-hot","true","0","9","398","398","0","test","12","2","3","30","750","60","false","rigged_win","","","",""
"567","","pre_stim","single-stim-button","178","241517","0.0-12.2-0.2","columbia-card-task-hot","true","0","17","567","567","0","test","12","3","3","30","750","90","false","rigged_win","","","",""
"391","","pre_stim","single-stim-button","179","241909","0.0-12.3-0.3","columbia-card-task-hot","true","0","25","391","391","0","test","12","4","3","30","750","120","false","rigged_win","","","",""
"551","","pre_stim","single-stim-button","180","242462","0.0-12.4-0.4","columbia-card-task-hot","true","0","10","551","551","0","test","12","5","3","30","750","150","false","rigged_win","","","",""
"391","","pre_stim","single-stim-button","181","242854","0.0-12.5-0.5","columbia-card-task-hot","true","0","2","391","391","0","test","12","6","3","30","750","180","false","rigged_win","","","",""
"1294","","pre_stim","single-stim-button","182","244149","0.0-12.6-0.6","columbia-card-task-hot","true","0","3","1294","1294","0","test","12","7","3","30","750","210","false","rigged_win","","","",""
"414","","pre_stim","single-stim-button","183","244565","0.0-12.7-0.7","columbia-card-task-hot","true","0","11","414","414","0","test","12","8","3","30","750","240","false","rigged_win","","","",""
"703","","pre_stim","single-stim-button","184","245269","0.0-12.8-0.8","columbia-card-task-hot","true","0","4","703","703","0","test","12","9","3","30","750","270","false","rigged_win","","","",""
"391","","pre_stim","single-stim-button","185","245661","0.0-12.9-0.9","columbia-card-task-hot","true","0","12","391","391","0","test","12","10","3","30","750","300","false","rigged_win","","","",""
"2926","","pre_stim","single-stim-button","186","248590","0.0-12.10-0.10","columbia-card-task-hot","true","0","7","2926","2926","0","test","12","11","3","30","750","330","false","rigged_win","","","",""
"494","","pre_stim","single-stim-button","187","249085","0.0-12.11-0.11","columbia-card-task-hot","true","0","8","494","494","0","test","12","12","3","30","750","360","false","rigged_win","","","",""
"391","","pre_stim","single-stim-button","188","249477","0.0-12.12-0.12","columbia-card-task-hot","true","0","16","391","391","0","test","12","13","3","30","750","390","false","rigged_win","","","",""
"951","","pre_stim","single-stim-button","189","250429","0.0-12.13-0.13","columbia-card-task-hot","true","0","turnButton","951","951","0","test","12","13","3","30","750","390","false","rigged_win","","","",""
"3406","","pre_stim","single-stim-button","190","253837","0.0-12.14-0.14","columbia-card-task-hot","true","0","collectButton","3406","3406","0","test","12","14","3","30","750","390","false","rigged_win","","","",""
"6543","","pre_stim","single-stim-button","191","260382","0.0-13.0-0.0","columbia-card-task-hot","true","0","9","6543","6543","0","test","13","1","3","10","250","10","false","rigged_win","","","",""
"390","","pre_stim","single-stim-button","192","260773","0.0-13.1-0.1","columbia-card-task-hot","true","0","10","390","390","0","test","13","2","3","10","250","20","false","rigged_win","","","",""
"343","","pre_stim","single-stim-button","193","261117","0.0-13.2-0.2","columbia-card-task-hot","true","0","11","343","343","0","test","13","3","3","10","250","30","false","rigged_win","","","",""
"375","","pre_stim","single-stim-button","194","261493","0.0-13.3-0.3","columbia-card-task-hot","true","0","12","375","375","0","test","13","4","3","10","250","40","false","rigged_win","","","",""
"383","","pre_stim","single-stim-button","195","261877","0.0-13.4-0.4","columbia-card-task-hot","true","0","13","383","383","0","test","13","5","3","10","250","50","false","rigged_win","","","",""
"415","","pre_stim","single-stim-button","196","262293","0.0-13.5-0.5","columbia-card-task-hot","true","0","14","415","415","0","test","13","6","3","10","250","60","false","rigged_win","","","",""
"406","","pre_stim","single-stim-button","197","262701","0.0-13.6-0.6","columbia-card-task-hot","true","0","15","406","406","0","test","13","7","3","10","250","70","false","rigged_win","","","",""
"958","","pre_stim","single-stim-button","198","263661","0.0-13.7-0.7","columbia-card-task-hot","true","0","16","958","958","0","test","13","8","3","10","250","80","false","rigged_win","","","",""
"1783","","pre_stim","single-stim-button","199","265446","0.0-13.8-0.8","columbia-card-task-hot","true","0","1","1783","1783","0","test","13","9","3","10","250","90","false","rigged_win","","","",""
"366","","pre_stim","single-stim-button","200","265814","0.0-13.9-0.9","columbia-card-task-hot","true","0","2","366","366","0","test","13","10","3","10","250","100","false","rigged_win","","","",""
"382","","pre_stim","single-stim-button","201","266197","0.0-13.10-0.10","columbia-card-task-hot","true","0","3","382","382","0","test","13","11","3","10","250","110","false","rigged_win","","","",""
"2095","","pre_stim","single-stim-button","202","268294","0.0-13.11-0.11","columbia-card-task-hot","true","0","21","2095","2095","0","test","13","12","3","10","250","120","false","rigged_win","","","",""
"597","","pre_stim","single-stim-button","203","268893","0.0-13.12-0.12","columbia-card-task-hot","true","0","29","597","597","0","test","13","13","3","10","250","130","false","rigged_win","","","",""
"535","","pre_stim","single-stim-button","204","269429","0.0-13.13-0.13","columbia-card-task-hot","true","0","22","535","535","0","test","13","14","3","10","250","140","false","rigged_win","","","",""
"479","","pre_stim","single-stim-button","205","269910","0.0-13.14-0.14","columbia-card-task-hot","true","0","23","479","479","0","test","13","15","3","10","250","150","false","rigged_win","","","",""
"510","","pre_stim","single-stim-button","206","270421","0.0-13.15-0.15","columbia-card-task-hot","true","0","24","510","510","0","test","13","16","3","10","250","160","false","rigged_win","","","",""
"2078","","pre_stim","single-stim-button","207","272501","0.0-13.16-0.16","columbia-card-task-hot","true","0","turnButton","2078","2078","0","test","13","16","3","10","250","160","false","rigged_win","","","",""
"4335","","pre_stim","single-stim-button","208","276837","0.0-13.17-0.17","columbia-card-task-hot","true","0","collectButton","4335","4335","0","test","13","17","3","10","250","160","false","rigged_win","","","",""
"6647","","pre_stim","single-stim-button","209","283486","0.0-14.0-0.0","columbia-card-task-hot","true","0","1","6647","6647","0","test","14","1","1","30","250","30","false","rigged_win","","","",""
"710","","pre_stim","single-stim-button","210","284197","0.0-14.1-0.1","columbia-card-task-hot","true","0","3","710","710","0","test","14","2","1","30","250","60","false","rigged_win","","","",""
"934","","pre_stim","single-stim-button","211","285134","0.0-14.2-0.2","columbia-card-task-hot","true","0","2","934","934","0","test","14","3","1","30","250","90","false","rigged_win","","","",""
"591","","pre_stim","single-stim-button","212","285725","0.0-14.3-0.3","columbia-card-task-hot","true","0","4","591","591","0","test","14","4","1","30","250","120","false","rigged_win","","","",""
"1494","","pre_stim","single-stim-button","213","287221","0.0-14.4-0.4","columbia-card-task-hot","true","0","5","1494","1494","0","test","14","5","1","30","250","150","false","rigged_win","","","",""
"431","","pre_stim","single-stim-button","214","287653","0.0-14.5-0.5","columbia-card-task-hot","true","0","6","431","431","0","test","14","6","1","30","250","180","false","rigged_win","","","",""
"495","","pre_stim","single-stim-button","215","288150","0.0-14.6-0.6","columbia-card-task-hot","true","0","7","495","495","0","test","14","7","1","30","250","210","false","rigged_win","","","",""
"438","","pre_stim","single-stim-button","216","288589","0.0-14.7-0.7","columbia-card-task-hot","true","0","8","438","438","0","test","14","8","1","30","250","240","false","rigged_win","","","",""
"1126","","pre_stim","single-stim-button","217","289718","0.0-14.8-0.8","columbia-card-task-hot","true","0","27","1126","1126","0","test","14","9","1","30","250","270","false","rigged_win","","","",""
"654","","pre_stim","single-stim-button","218","290373","0.0-14.9-0.9","columbia-card-task-hot","true","0","30","654","654","0","test","14","10","1","30","250","300","false","rigged_win","","","",""
"1007","","pre_stim","single-stim-button","219","291381","0.0-14.10-0.10","columbia-card-task-hot","true","0","9","1007","1007","0","test","14","11","1","30","250","330","false","rigged_win","","","",""
"358","","pre_stim","single-stim-button","220","291742","0.0-14.11-0.11","columbia-card-task-hot","true","0","10","358","358","0","test","14","12","1","30","250","360","false","rigged_win","","","",""
"366","","pre_stim","single-stim-button","221","292109","0.0-14.12-0.12","columbia-card-task-hot","true","0","11","366","366","0","test","14","13","1","30","250","390","false","rigged_win","","","",""
"398","","pre_stim","single-stim-button","222","292509","0.0-14.13-0.13","columbia-card-task-hot","true","0","12","398","398","0","test","14","14","1","30","250","420","false","rigged_win","","","",""
"407","","pre_stim","single-stim-button","223","292917","0.0-14.14-0.14","columbia-card-task-hot","true","0","13","407","407","0","test","14","15","1","30","250","450","false","rigged_win","","","",""
"606","","pre_stim","single-stim-button","224","293525","0.0-14.15-0.15","columbia-card-task-hot","true","0","14","606","606","0","test","14","16","1","30","250","480","false","rigged_win","","","",""
"494","","pre_stim","single-stim-button","225","294021","0.0-14.16-0.16","columbia-card-task-hot","true","0","15","494","494","0","test","14","17","1","30","250","510","false","rigged_win","","","",""
"510","","pre_stim","single-stim-button","226","294533","0.0-14.17-0.17","columbia-card-task-hot","true","0","16","510","510","0","test","14","18","1","30","250","540","false","rigged_win","","","",""
"966","","pre_stim","single-stim-button","227","295501","0.0-14.18-0.18","columbia-card-task-hot","true","0","17","966","966","0","test","14","19","1","30","250","570","false","rigged_win","","","",""
"375","","pre_stim","single-stim-button","228","295877","0.0-14.19-0.19","columbia-card-task-hot","true","0","18","375","375","0","test","14","20","1","30","250","600","false","rigged_win","","","",""
"374","","pre_stim","single-stim-button","229","296253","0.0-14.20-0.20","columbia-card-task-hot","true","0","19","374","374","0","test","14","21","1","30","250","630","false","rigged_win","","","",""
"366","","pre_stim","single-stim-button","230","296621","0.0-14.21-0.21","columbia-card-task-hot","true","0","20","366","366","0","test","14","22","1","30","250","660","false","rigged_win","","","",""
"367","","pre_stim","single-stim-button","231","296990","0.0-14.22-0.22","columbia-card-task-hot","true","0","21","367","367","0","test","14","23","1","30","250","690","false","rigged_win","","","",""
"390","","pre_stim","single-stim-button","232","297382","0.0-14.23-0.23","columbia-card-task-hot","true","0","22","390","390","0","test","14","24","1","30","250","720","false","rigged_win","","","",""
"1326","","pre_stim","single-stim-button","233","298709","0.0-14.24-0.24","columbia-card-task-hot","true","0","23","1326","1326","0","test","14","25","1","30","250","750","false","rigged_win","","","",""
"422","","pre_stim","single-stim-button","234","299133","0.0-14.25-0.25","columbia-card-task-hot","true","0","24","422","422","0","test","14","26","1","30","250","780","false","rigged_win","","","",""
"463","","pre_stim","single-stim-button","235","299597","0.0-14.26-0.26","columbia-card-task-hot","true","0","31","463","463","0","test","14","27","1","30","250","810","false","rigged_win","","","",""
"439","","pre_stim","single-stim-button","236","300038","0.0-14.27-0.27","columbia-card-task-hot","true","0","32","439","439","0","test","14","28","1","30","250","840","false","rigged_win","","","",""
"822","","pre_stim","single-stim-button","237","300862","0.0-14.28-0.28","columbia-card-task-hot","true","0","25","822","822","0","test","14","29","1","30","250","870","false","rigged_win","","","",""
"526","","pre_stim","single-stim-button","238","301390","0.0-14.29-0.29","columbia-card-task-hot","true","0","26","526","526","0","test","14","30","1","30","250","900","false","rigged_win","","","",""
"1358","","pre_stim","single-stim-button","239","302750","0.0-14.30-0.30","columbia-card-task-hot","true","0","turnButton","1358","1358","0","test","14","30","1","30","250","900","false","rigged_win","","","",""
"3558","","pre_stim","single-stim-button","240","306309","0.0-14.31-0.31","columbia-card-task-hot","true","0","collectButton","3558","3558","0","test","14","31","1","30","250","900","false","rigged_win","","","",""
"7158","","pre_stim","single-stim-button","241","313470","0.0-15.0-0.0","columbia-card-task-hot","true","0","26","7158","7158","0","test","15","1","3","10","250","10","false","rigged_loss","","","",""
"398","","pre_stim","single-stim-button","242","313870","0.0-15.1-0.1","columbia-card-task-hot","true","0","27","398","398","0","test","15","2","3","10","250","20","false","rigged_loss","","","",""
"478","","pre_stim","single-stim-button","243","314350","0.0-15.2-0.2","columbia-card-task-hot","true","0","28","478","478","0","test","15","3","3","10","250","30","false","rigged_loss","","","",""
"486","","pre_stim","single-stim-button","244","314838","0.0-15.3-0.3","columbia-card-task-hot","true","0","29","486","486","0","test","15","4","3","10","250","40","false","rigged_loss","","","",""
"518","","pre_stim","single-stim-button","245","315358","0.0-15.4-0.4","columbia-card-task-hot","true","0","30","518","518","0","test","15","5","3","10","250","50","false","rigged_loss","","","",""
"3174","","pre_stim","single-stim-button","246","318534","0.0-15.5-0.5","columbia-card-task-hot","true","0","9","3174","3174","0","test","15","6","3","10","250","60","false","rigged_loss","","","",""
"462","","pre_stim","single-stim-button","247","318998","0.0-15.6-0.6","columbia-card-task-hot","true","0","1","462","462","0","test","15","7","3","10","250","70","false","rigged_loss","","","",""
"414","","pre_stim","single-stim-button","248","319414","0.0-15.7-0.7","columbia-card-task-hot","true","0","10","414","414","0","test","15","8","3","10","250","-180","true","rigged_loss","","","",""
"5165","","pre_stim","single-stim-button","249","324582","0.0-15.8-0.8","columbia-card-task-hot","true","0","collectButton","5165","5165","0","test","15","9","3","10","250","-180","true","rigged_loss","","","",""
"6262","","pre_stim","single-stim-button","250","330846","0.0-16.0-0.0","columbia-card-task-hot","true","0","6","6262","6262","0","test","16","1","3","10","750","10","false","rigged_win","","","",""
"462","","pre_stim","single-stim-button","251","331310","0.0-16.1-0.1","columbia-card-task-hot","true","0","14","462","462","0","test","16","2","3","10","750","20","false","rigged_win","","","",""
"438","","pre_stim","single-stim-button","252","331750","0.0-16.2-0.2","columbia-card-task-hot","true","0","22","438","438","0","test","16","3","3","10","750","30","false","rigged_win","","","",""
"398","","pre_stim","single-stim-button","253","332150","0.0-16.3-0.3","columbia-card-task-hot","true","0","23","398","398","0","test","16","4","3","10","750","40","false","rigged_win","","","",""
"830","","pre_stim","single-stim-button","254","332982","0.0-16.4-0.4","columbia-card-task-hot","true","0","24","830","830","0","test","16","5","3","10","750","50","false","rigged_win","","","",""
"1294","","pre_stim","single-stim-button","255","334277","0.0-16.5-0.5","columbia-card-task-hot","true","0","8","1294","1294","0","test","16","6","3","10","750","60","false","rigged_win","","","",""
"3006","","pre_stim","single-stim-button","256","337286","0.0-16.6-0.6","columbia-card-task-hot","true","0","1","3006","3006","0","test","16","7","3","10","750","70","false","rigged_win","","","",""
"366","","pre_stim","single-stim-button","257","337654","0.0-16.7-0.7","columbia-card-task-hot","true","0","9","366","366","0","test","16","8","3","10","750","80","false","rigged_win","","","",""
"662","","pre_stim","single-stim-button","258","338318","0.0-16.8-0.8","columbia-card-task-hot","true","0","17","662","662","0","test","16","9","3","10","750","90","false","rigged_win","","","",""
"1862","","pre_stim","single-stim-button","259","340182","0.0-16.9-0.9","columbia-card-task-hot","true","0","turnButton","1862","1862","0","test","16","9","3","10","750","90","false","rigged_win","","","",""
"3198","","pre_stim","single-stim-button","260","343382","0.0-16.10-0.10","columbia-card-task-hot","true","0","collectButton","3198","3198","0","test","16","10","3","10","750","90","false","rigged_win","","","",""
"6902","","pre_stim","single-stim-button","261","350286","0.0-17.0-0.0","columbia-card-task-hot","true","0","1","6902","6902","0","test","17","1","1","10","750","10","false","rigged_loss","","","",""
"397","","pre_stim","single-stim-button","262","350686","0.0-17.1-0.1","columbia-card-task-hot","true","0","2","397","397","0","test","17","2","1","10","750","20","false","rigged_loss","","","",""
"774","","pre_stim","single-stim-button","263","351462","0.0-17.2-0.2","columbia-card-task-hot","true","0","3","774","774","0","test","17","3","1","10","750","30","false","rigged_loss","","","",""
"1022","","pre_stim","single-stim-button","264","352485","0.0-17.3-0.3","columbia-card-task-hot","true","0","4","1022","1022","0","test","17","4","1","10","750","40","false","rigged_loss","","","",""
"590","","pre_stim","single-stim-button","265","353078","0.0-17.4-0.4","columbia-card-task-hot","true","0","9","590","590","0","test","17","5","1","10","750","-710","true","rigged_loss","","","",""
"3406","","pre_stim","single-stim-button","266","356486","0.0-17.5-0.5","columbia-card-task-hot","true","0","collectButton","3406","3406","0","test","17","6","1","10","750","-710","true","rigged_loss","","","",""
"9373","","pre_stim","single-stim-button","267","365861","0.0-18.0-0.0","columbia-card-task-hot","true","0","27","9373","9373","0","test","18","1","1","10","250","10","false","rigged_loss","","","",""
"550","","pre_stim","single-stim-button","268","366413","0.0-18.1-0.1","columbia-card-task-hot","true","0","26","550","550","0","test","18","2","1","10","250","20","false","rigged_loss","","","",""
"462","","pre_stim","single-stim-button","269","366877","0.0-18.2-0.2","columbia-card-task-hot","true","0","25","462","462","0","test","18","3","1","10","250","30","false","rigged_loss","","","",""
"486","","pre_stim","single-stim-button","270","367365","0.0-18.3-0.3","columbia-card-task-hot","true","0","17","486","486","0","test","18","4","1","10","250","40","false","rigged_loss","","","",""
"407","","pre_stim","single-stim-button","271","367773","0.0-18.4-0.4","columbia-card-task-hot","true","0","18","407","407","0","test","18","5","1","10","250","50","false","rigged_loss","","","",""
"366","","pre_stim","single-stim-button","272","368141","0.0-18.5-0.5","columbia-card-task-hot","true","0","19","366","366","0","test","18","6","1","10","250","60","false","rigged_loss","","","",""
"390","","pre_stim","single-stim-button","273","368533","0.0-18.6-0.6","columbia-card-task-hot","true","0","20","390","390","0","test","18","7","1","10","250","70","false","rigged_loss","","","",""
"1477","","pre_stim","single-stim-button","274","370013","0.0-18.7-0.7","columbia-card-task-hot","true","0","21","1477","1477","0","test","18","8","1","10","250","80","false","rigged_loss","","","",""
"862","","pre_stim","single-stim-button","275","370877","0.0-18.8-0.8","columbia-card-task-hot","true","0","22","862","862","0","test","18","9","1","10","250","-170","true","rigged_loss","","","",""
"3805","","pre_stim","single-stim-button","276","374685","0.0-18.9-0.9","columbia-card-task-hot","true","0","collectButton","3805","3805","0","test","18","10","1","10","250","-170","true","rigged_loss","","","",""
"9543","","pre_stim","single-stim-button","277","384229","0.0-19.0-0.0","columbia-card-task-hot","true","0","11","9543","9543","0","test","19","1","3","30","250","30","false","rigged_win","","","",""
"407","","pre_stim","single-stim-button","278","384637","0.0-19.1-0.1","columbia-card-task-hot","true","0","19","407","407","0","test","19","2","3","30","250","60","false","rigged_win","","","",""
"405","","pre_stim","single-stim-button","279","385045","0.0-19.2-0.2","columbia-card-task-hot","true","0","12","405","405","0","test","19","3","3","30","250","90","false","rigged_win","","","",""
"398","","pre_stim","single-stim-button","280","385445","0.0-19.3-0.3","columbia-card-task-hot","true","0","20","398","398","0","test","19","4","3","30","250","120","false","rigged_win","","","",""
"430","","pre_stim","single-stim-button","281","385877","0.0-19.4-0.4","columbia-card-task-hot","true","0","13","430","430","0","test","19","5","3","30","250","150","false","rigged_win","","","",""
"382","","pre_stim","single-stim-button","282","386261","0.0-19.5-0.5","columbia-card-task-hot","true","0","21","382","382","0","test","19","6","3","30","250","180","false","rigged_win","","","",""
"1790","","pre_stim","single-stim-button","283","388053","0.0-19.6-0.6","columbia-card-task-hot","true","0","1","1790","1790","0","test","19","7","3","30","250","210","false","rigged_win","","","",""
"445","","pre_stim","single-stim-button","284","388501","0.0-19.7-0.7","columbia-card-task-hot","true","0","2","445","445","0","test","19","8","3","30","250","240","false","rigged_win","","","",""
"1382","","pre_stim","single-stim-button","285","389885","0.0-19.8-0.8","columbia-card-task-hot","true","0","15","1382","1382","0","test","19","9","3","30","250","270","false","rigged_win","","","",""
"878","","pre_stim","single-stim-button","286","390765","0.0-19.9-0.9","columbia-card-task-hot","true","0","16","878","878","0","test","19","10","3","30","250","300","false","rigged_win","","","",""
"454","","pre_stim","single-stim-button","287","391221","0.0-19.10-0.10","columbia-card-task-hot","true","0","24","454","454","0","test","19","11","3","30","250","330","false","rigged_win","","","",""
"1445","","pre_stim","single-stim-button","288","392669","0.0-19.11-0.11","columbia-card-task-hot","true","0","32","1445","1445","0","test","19","12","3","30","250","360","false","rigged_win","","","",""
"2965","","pre_stim","single-stim-button","289","395637","0.0-19.12-0.12","columbia-card-task-hot","true","0","turnButton","2965","2965","0","test","19","12","3","30","250","360","false","rigged_win","","","",""
"3678","","pre_stim","single-stim-button","290","399317","0.0-19.13-0.13","columbia-card-task-hot","true","0","collectButton","3678","3678","0","test","19","13","3","30","250","360","false","rigged_win","","","",""
"6918","","pre_stim","single-stim-button","291","406237","0.0-20.0-0.0","columbia-card-task-hot","true","0","1","6918","6918","0","test","20","1","1","30","750","30","false","rigged_win","","","",""
"430","","pre_stim","single-stim-button","292","406669","0.0-20.1-0.1","columbia-card-task-hot","true","0","9","430","430","0","test","20","2","1","30","750","60","false","rigged_win","","","",""
"469","","pre_stim","single-stim-button","293","407141","0.0-20.2-0.2","columbia-card-task-hot","true","0","17","469","469","0","test","20","3","1","30","750","90","false","rigged_win","","","",""
"781","","pre_stim","single-stim-button","294","407925","0.0-20.3-0.3","columbia-card-task-hot","true","0","25","781","781","0","test","20","4","1","30","750","120","false","rigged_win","","","",""
"501","","pre_stim","single-stim-button","295","408428","0.0-20.4-0.4","columbia-card-task-hot","true","0","26","501","501","0","test","20","5","1","30","750","150","false","rigged_win","","","",""
"1191","","pre_stim","single-stim-button","296","409621","0.0-20.5-0.5","columbia-card-task-hot","true","0","18","1191","1191","0","test","20","6","1","30","750","180","false","rigged_win","","","",""
"374","","pre_stim","single-stim-button","297","409997","0.0-20.6-0.6","columbia-card-task-hot","true","0","10","374","374","0","test","20","7","1","30","750","210","false","rigged_win","","","",""
"637","","pre_stim","single-stim-button","298","410637","0.0-20.7-0.7","columbia-card-task-hot","true","0","2","637","637","0","test","20","8","1","30","750","240","false","rigged_win","","","",""
"454","","pre_stim","single-stim-button","299","411093","0.0-20.8-0.8","columbia-card-task-hot","true","0","3","454","454","0","test","20","9","1","30","750","270","false","rigged_win","","","",""
"638","","pre_stim","single-stim-button","300","411733","0.0-20.9-0.9","columbia-card-task-hot","true","0","11","638","638","0","test","20","10","1","30","750","300","false","rigged_win","","","",""
"510","","pre_stim","single-stim-button","301","412245","0.0-20.10-0.10","columbia-card-task-hot","true","0","19","510","510","0","test","20","11","1","30","750","330","false","rigged_win","","","",""
"437","","pre_stim","single-stim-button","302","412685","0.0-20.11-0.11","columbia-card-task-hot","true","0","27","437","437","0","test","20","12","1","30","750","360","false","rigged_win","","","",""
"399","","pre_stim","single-stim-button","303","413085","0.0-20.12-0.12","columbia-card-task-hot","true","0","28","399","399","0","test","20","13","1","30","750","390","false","rigged_win","","","",""
"374","","pre_stim","single-stim-button","304","413461","0.0-20.13-0.13","columbia-card-task-hot","true","0","20","374","374","0","test","20","14","1","30","750","420","false","rigged_win","","","",""
"479","","pre_stim","single-stim-button","305","413941","0.0-20.14-0.14","columbia-card-task-hot","true","0","12","479","479","0","test","20","15","1","30","750","450","false","rigged_win","","","",""
"581","","pre_stim","single-stim-button","306","414525","0.0-20.15-0.15","columbia-card-task-hot","true","0","4","581","581","0","test","20","16","1","30","750","480","false","rigged_win","","","",""
"518","","pre_stim","single-stim-button","307","415045","0.0-20.16-0.16","columbia-card-task-hot","true","0","5","518","518","0","test","20","17","1","30","750","510","false","rigged_win","","","",""
"478","","pre_stim","single-stim-button","308","415525","0.0-20.17-0.17","columbia-card-task-hot","true","0","13","478","478","0","test","20","18","1","30","750","540","false","rigged_win","","","",""
"542","","pre_stim","single-stim-button","309","416069","0.0-20.18-0.18","columbia-card-task-hot","true","0","21","542","542","0","test","20","19","1","30","750","570","false","rigged_win","","","",""
"454","","pre_stim","single-stim-button","310","416525","0.0-20.19-0.19","columbia-card-task-hot","true","0","29","454","454","0","test","20","20","1","30","750","600","false","rigged_win","","","",""
"350","","pre_stim","single-stim-button","311","416876","0.0-20.20-0.20","columbia-card-task-hot","true","0","30","350","350","0","test","20","21","1","30","750","630","false","rigged_win","","","",""
"1166","","pre_stim","single-stim-button","312","418045","0.0-20.21-0.21","columbia-card-task-hot","true","0","22","1166","1166","0","test","20","22","1","30","750","660","false","rigged_win","","","",""
"1262","","pre_stim","single-stim-button","313","419309","0.0-20.22-0.22","columbia-card-task-hot","true","0","31","1262","1262","0","test","20","23","1","30","750","690","false","rigged_win","","","",""
"455","","pre_stim","single-stim-button","314","419765","0.0-20.23-0.23","columbia-card-task-hot","true","0","32","455","455","0","test","20","24","1","30","750","720","false","rigged_win","","","",""
"1367","","pre_stim","single-stim-button","315","421133","0.0-20.24-0.24","columbia-card-task-hot","true","0","14","1367","1367","0","test","20","25","1","30","750","750","false","rigged_win","","","",""
"566","","pre_stim","single-stim-button","316","421702","0.0-20.25-0.25","columbia-card-task-hot","true","0","6","566","566","0","test","20","26","1","30","750","780","false","rigged_win","","","",""
"1550","","pre_stim","single-stim-button","317","423253","0.0-20.26-0.26","columbia-card-task-hot","true","0","23","1550","1550","0","test","20","27","1","30","750","810","false","rigged_win","","","",""
"1750","","pre_stim","single-stim-button","318","425006","0.0-20.27-0.27","columbia-card-task-hot","true","0","turnButton","1750","1750","0","test","20","27","1","30","750","810","false","rigged_win","","","",""
"3286","","pre_stim","single-stim-button","319","428293","0.0-20.28-0.28","columbia-card-task-hot","true","0","collectButton","3286","3286","0","test","20","28","1","30","750","810","false","rigged_win","","","",""
"27022","{""Q0"":""Ich sollte mglichst viele gelbe Karten aufdecken, ohne dabei eine rote Karte aufzudecken."",""Q1"":""""}","post task questions","survey-text","320","455318","0.0-21.0","columbia-card-task-hot","true","0","","","","","","","","","","","","","","true","0","",""
"5134","","","poldrack-text","321","461470","0.0-22.0","columbia-card-task-hot","true","0","","","5134","1000","","","","","","","","","","","","<div class = centerbox><p class = center-block-text>Finished with this task.</p></div>","17"
