"rt","responses","trial_id","trial_type","trial_index","time_elapsed","internal_node_id","exp_id","full_screen","focus_shifts","mouse_click","stim_duration","block_duration","timing_post_trial","exp_stage","which_round","num_click_in_round","num_loss_cards","gain_amount","loss_amount","round_points","clicked_on_loss_card","round_type","credit_var","performance_var","text","key_press"
"13758","{""Q0"":""-SF4j""}","pre task questions","survey-text","0","13761","0.0-0.0","columbia-card-task-hot","true","0","","","","","","","","","","","","","","","","",""
"8389","","pre_stim","single-stim-button","1","23152","0.0-1.0-0.0","columbia-card-task-hot","true","0","1","8389","8389","0","test","1","1","3","30","250","30","false","rigged_win","","","",""
"974","","pre_stim","single-stim-button","2","24127","0.0-1.1-0.1","columbia-card-task-hot","true","0","2","974","974","0","test","1","2","3","30","250","60","false","rigged_win","","","",""
"991","","pre_stim","single-stim-button","3","25120","0.0-1.2-0.2","columbia-card-task-hot","true","0","3","991","991","0","test","1","3","3","30","250","90","false","rigged_win","","","",""
"1007","","pre_stim","single-stim-button","4","26128","0.0-1.3-0.3","columbia-card-task-hot","true","0","4","1007","1007","0","test","1","4","3","30","250","120","false","rigged_win","","","",""
"1015","","pre_stim","single-stim-button","5","27143","0.0-1.4-0.4","columbia-card-task-hot","true","0","5","1015","1015","0","test","1","5","3","30","250","150","false","rigged_win","","","",""
"1095","","pre_stim","single-stim-button","6","28240","0.0-1.5-0.5","columbia-card-task-hot","true","0","6","1095","1095","0","test","1","6","3","30","250","180","false","rigged_win","","","",""
"1703","","pre_stim","single-stim-button","7","29944","0.0-1.6-0.6","columbia-card-task-hot","true","0","7","1703","1703","0","test","1","7","3","30","250","210","false","rigged_win","","","",""
"1215","","pre_stim","single-stim-button","8","31160","0.0-1.7-0.7","columbia-card-task-hot","true","0","8","1215","1215","0","test","1","8","3","30","250","240","false","rigged_win","","","",""
"2095","","pre_stim","single-stim-button","9","33256","0.0-1.8-0.8","columbia-card-task-hot","true","0","16","2095","2095","0","test","1","9","3","30","250","270","false","rigged_win","","","",""
"1487","","pre_stim","single-stim-button","10","34744","0.0-1.9-0.9","columbia-card-task-hot","true","0","15","1487","1487","0","test","1","10","3","30","250","300","false","rigged_win","","","",""
"1415","","pre_stim","single-stim-button","11","36159","0.0-1.10-0.10","columbia-card-task-hot","true","0","23","1415","1415","0","test","1","11","3","30","250","330","false","rigged_win","","","",""
"1055","","pre_stim","single-stim-button","12","37216","0.0-1.11-0.11","columbia-card-task-hot","true","0","24","1055","1055","0","test","1","12","3","30","250","360","false","rigged_win","","","",""
"1255","","pre_stim","single-stim-button","13","38472","0.0-1.12-0.12","columbia-card-task-hot","true","0","22","1255","1255","0","test","1","13","3","30","250","390","false","rigged_win","","","",""
"919","","pre_stim","single-stim-button","14","39392","0.0-1.13-0.13","columbia-card-task-hot","true","0","14","919","919","0","test","1","14","3","30","250","420","false","rigged_win","","","",""
"983","","pre_stim","single-stim-button","15","40376","0.0-1.14-0.14","columbia-card-task-hot","true","0","30","983","983","0","test","1","15","3","30","250","450","false","rigged_win","","","",""
"735","","pre_stim","single-stim-button","16","41111","0.0-1.15-0.15","columbia-card-task-hot","true","0","31","735","735","0","test","1","16","3","30","250","480","false","rigged_win","","","",""
"703","","pre_stim","single-stim-button","17","41816","0.0-1.16-0.16","columbia-card-task-hot","true","0","32","703","703","0","test","1","17","3","30","250","510","false","rigged_win","","","",""
"2223","","pre_stim","single-stim-button","18","44040","0.0-1.17-0.17","columbia-card-task-hot","true","0","25","2223","2223","0","test","1","18","3","30","250","540","false","rigged_win","","","",""
"1511","","pre_stim","single-stim-button","19","45552","0.0-1.18-0.18","columbia-card-task-hot","true","0","26","1511","1511","0","test","1","19","3","30","250","570","false","rigged_win","","","",""
"3191","","pre_stim","single-stim-button","20","48744","0.0-1.19-0.19","columbia-card-task-hot","true","0","27","3191","3191","0","test","1","20","3","30","250","600","false","rigged_win","","","",""
"2318","","pre_stim","single-stim-button","21","51064","0.0-1.20-0.20","columbia-card-task-hot","true","0","28","2318","2318","0","test","1","21","3","30","250","630","false","rigged_win","","","",""
"1431","","pre_stim","single-stim-button","22","52496","0.0-1.21-0.21","columbia-card-task-hot","true","0","turnButton","1431","1431","0","test","1","21","3","30","250","630","false","rigged_win","","","",""
"4694","","pre_stim","single-stim-button","23","57192","0.0-1.22-0.22","columbia-card-task-hot","true","0","collectButton","4694","4694","0","test","1","22","3","30","250","630","false","rigged_win","","","",""
"6895","","pre_stim","single-stim-button","24","64088","0.0-2.0-0.0","columbia-card-task-hot","true","0","17","6895","6895","0","test","2","1","3","10","250","10","false","rigged_loss","","","",""
"975","","pre_stim","single-stim-button","25","65064","0.0-2.1-0.1","columbia-card-task-hot","true","0","9","975","975","0","test","2","2","3","10","250","20","false","rigged_loss","","","",""
"951","","pre_stim","single-stim-button","26","66016","0.0-2.2-0.2","columbia-card-task-hot","true","0","1","951","951","0","test","2","3","3","10","250","-230","true","rigged_loss","","","",""
"4551","","pre_stim","single-stim-button","27","70568","0.0-2.3-0.3","columbia-card-task-hot","true","0","collectButton","4551","4551","0","test","2","4","3","10","250","-230","true","rigged_loss","","","",""
"7271","","pre_stim","single-stim-button","28","77840","0.0-3.0-0.0","columbia-card-task-hot","true","0","25","7271","7271","0","test","3","1","3","10","250","10","false","rigged_win","","","",""
"910","","pre_stim","single-stim-button","29","78751","0.0-3.1-0.1","columbia-card-task-hot","true","0","26","910","910","0","test","3","2","3","10","250","20","false","rigged_win","","","",""
"1031","","pre_stim","single-stim-button","30","79784","0.0-3.2-0.2","columbia-card-task-hot","true","0","27","1031","1031","0","test","3","3","3","10","250","30","false","rigged_win","","","",""
"727","","pre_stim","single-stim-button","31","80512","0.0-3.3-0.3","columbia-card-task-hot","true","0","28","727","727","0","test","3","4","3","10","250","40","false","rigged_win","","","",""
"783","","pre_stim","single-stim-button","32","81296","0.0-3.4-0.4","columbia-card-task-hot","true","0","29","783","783","0","test","3","5","3","10","250","50","false","rigged_win","","","",""
"742","","pre_stim","single-stim-button","33","82040","0.0-3.5-0.5","columbia-card-task-hot","true","0","30","742","742","0","test","3","6","3","10","250","60","false","rigged_win","","","",""
"727","","pre_stim","single-stim-button","34","82768","0.0-3.6-0.6","columbia-card-task-hot","true","0","31","727","727","0","test","3","7","3","10","250","70","false","rigged_win","","","",""
"2511","","pre_stim","single-stim-button","35","85280","0.0-3.7-0.7","columbia-card-task-hot","true","0","32","2511","2511","0","test","3","8","3","10","250","80","false","rigged_win","","","",""
"831","","pre_stim","single-stim-button","36","86112","0.0-3.8-0.8","columbia-card-task-hot","true","0","24","831","831","0","test","3","9","3","10","250","90","false","rigged_win","","","",""
"871","","pre_stim","single-stim-button","37","86984","0.0-3.9-0.9","columbia-card-task-hot","true","0","23","871","871","0","test","3","10","3","10","250","100","false","rigged_win","","","",""
"951","","pre_stim","single-stim-button","38","87935","0.0-3.10-0.10","columbia-card-task-hot","true","0","22","951","951","0","test","3","11","3","10","250","110","false","rigged_win","","","",""
"1423","","pre_stim","single-stim-button","39","89360","0.0-3.11-0.11","columbia-card-task-hot","true","0","21","1423","1423","0","test","3","12","3","10","250","120","false","rigged_win","","","",""
"1326","","pre_stim","single-stim-button","40","90688","0.0-3.12-0.12","columbia-card-task-hot","true","0","20","1326","1326","0","test","3","13","3","10","250","130","false","rigged_win","","","",""
"5039","","pre_stim","single-stim-button","41","95728","0.0-3.13-0.13","columbia-card-task-hot","true","0","turnButton","5039","5039","0","test","3","13","3","10","250","130","false","rigged_win","","","",""
"4447","","pre_stim","single-stim-button","42","100176","0.0-3.14-0.14","columbia-card-task-hot","true","0","collectButton","4447","4447","0","test","3","14","3","10","250","130","false","rigged_win","","","",""
"8719","","pre_stim","single-stim-button","43","108896","0.0-4.0-0.0","columbia-card-task-hot","true","0","17","8719","8719","0","test","4","1","3","30","250","30","false","rigged_win","","","",""
"1630","","pre_stim","single-stim-button","44","110528","0.0-4.1-0.1","columbia-card-task-hot","true","0","25","1630","1630","0","test","4","2","3","30","250","60","false","rigged_win","","","",""
"734","","pre_stim","single-stim-button","45","111264","0.0-4.2-0.2","columbia-card-task-hot","true","0","26","734","734","0","test","4","3","3","30","250","90","false","rigged_win","","","",""
"911","","pre_stim","single-stim-button","46","112176","0.0-4.3-0.3","columbia-card-task-hot","true","0","27","911","911","0","test","4","4","3","30","250","120","false","rigged_win","","","",""
"814","","pre_stim","single-stim-button","47","112991","0.0-4.4-0.4","columbia-card-task-hot","true","0","28","814","814","0","test","4","5","3","30","250","150","false","rigged_win","","","",""
"720","","pre_stim","single-stim-button","48","113712","0.0-4.5-0.5","columbia-card-task-hot","true","0","29","720","720","0","test","4","6","3","30","250","180","false","rigged_win","","","",""
"695","","pre_stim","single-stim-button","49","114408","0.0-4.6-0.6","columbia-card-task-hot","true","0","30","695","695","0","test","4","7","3","30","250","210","false","rigged_win","","","",""
"743","","pre_stim","single-stim-button","50","115152","0.0-4.7-0.7","columbia-card-task-hot","true","0","31","743","743","0","test","4","8","3","30","250","240","false","rigged_win","","","",""
"703","","pre_stim","single-stim-button","51","115855","0.0-4.8-0.8","columbia-card-task-hot","true","0","32","703","703","0","test","4","9","3","30","250","270","false","rigged_win","","","",""
"4424","","pre_stim","single-stim-button","52","120281","0.0-4.9-0.9","columbia-card-task-hot","true","0","1","4424","4424","0","test","4","10","3","30","250","300","false","rigged_win","","","",""
"1095","","pre_stim","single-stim-button","53","121377","0.0-4.10-0.10","columbia-card-task-hot","true","0","2","1095","1095","0","test","4","11","3","30","250","330","false","rigged_win","","","",""
"775","","pre_stim","single-stim-button","54","122153","0.0-4.11-0.11","columbia-card-task-hot","true","0","3","775","775","0","test","4","12","3","30","250","360","false","rigged_win","","","",""
"815","","pre_stim","single-stim-button","55","122968","0.0-4.12-0.12","columbia-card-task-hot","true","0","4","815","815","0","test","4","13","3","30","250","390","false","rigged_win","","","",""
"671","","pre_stim","single-stim-button","56","123640","0.0-4.13-0.13","columbia-card-task-hot","true","0","5","671","671","0","test","4","14","3","30","250","420","false","rigged_win","","","",""
"1510","","pre_stim","single-stim-button","57","125152","0.0-4.14-0.14","columbia-card-task-hot","true","0","6","1510","1510","0","test","4","15","3","30","250","450","false","rigged_win","","","",""
"776","","pre_stim","single-stim-button","58","125928","0.0-4.15-0.15","columbia-card-task-hot","true","0","7","776","776","0","test","4","16","3","30","250","480","false","rigged_win","","","",""
"791","","pre_stim","single-stim-button","59","126720","0.0-4.16-0.16","columbia-card-task-hot","true","0","8","791","791","0","test","4","17","3","30","250","510","false","rigged_win","","","",""
"887","","pre_stim","single-stim-button","60","127608","0.0-4.17-0.17","columbia-card-task-hot","true","0","16","887","887","0","test","4","18","3","30","250","540","false","rigged_win","","","",""
"807","","pre_stim","single-stim-button","61","128416","0.0-4.18-0.18","columbia-card-task-hot","true","0","24","807","807","0","test","4","19","3","30","250","570","false","rigged_win","","","",""
"783","","pre_stim","single-stim-button","62","129200","0.0-4.19-0.19","columbia-card-task-hot","true","0","23","783","783","0","test","4","20","3","30","250","600","false","rigged_win","","","",""
"727","","pre_stim","single-stim-button","63","129928","0.0-4.20-0.20","columbia-card-task-hot","true","0","15","727","727","0","test","4","21","3","30","250","630","false","rigged_win","","","",""
"1039","","pre_stim","single-stim-button","64","130968","0.0-4.21-0.21","columbia-card-task-hot","true","0","14","1039","1039","0","test","4","22","3","30","250","660","false","rigged_win","","","",""
"2103","","pre_stim","single-stim-button","65","133072","0.0-4.22-0.22","columbia-card-task-hot","true","0","22","2103","2103","0","test","4","23","3","30","250","690","false","rigged_win","","","",""
"1398","","pre_stim","single-stim-button","66","134472","0.0-4.23-0.23","columbia-card-task-hot","true","0","21","1398","1398","0","test","4","24","3","30","250","720","false","rigged_win","","","",""
"2544","","pre_stim","single-stim-button","67","137017","0.0-4.24-0.24","columbia-card-task-hot","true","0","13","2544","2544","0","test","4","25","3","30","250","750","false","rigged_win","","","",""
"1919","","pre_stim","single-stim-button","68","138936","0.0-4.25-0.25","columbia-card-task-hot","true","0","turnButton","1919","1919","0","test","4","25","3","30","250","750","false","rigged_win","","","",""
"6287","","pre_stim","single-stim-button","69","145224","0.0-4.26-0.26","columbia-card-task-hot","true","0","collectButton","6287","6287","0","test","4","26","3","30","250","750","false","rigged_win","","","",""
"7199","","pre_stim","single-stim-button","70","152425","0.0-5.0-0.0","columbia-card-task-hot","true","0","9","7199","7199","0","test","5","1","3","30","750","30","false","rigged_win","","","",""
"679","","pre_stim","single-stim-button","71","153105","0.0-5.1-0.1","columbia-card-task-hot","true","0","10","679","679","0","test","5","2","3","30","750","60","false","rigged_win","","","",""
"847","","pre_stim","single-stim-button","72","153952","0.0-5.2-0.2","columbia-card-task-hot","true","0","11","847","847","0","test","5","3","3","30","750","90","false","rigged_win","","","",""
"679","","pre_stim","single-stim-button","73","154632","0.0-5.3-0.3","columbia-card-task-hot","true","0","12","679","679","0","test","5","4","3","30","750","120","false","rigged_win","","","",""
"743","","pre_stim","single-stim-button","74","155377","0.0-5.4-0.4","columbia-card-task-hot","true","0","13","743","743","0","test","5","5","3","30","750","150","false","rigged_win","","","",""
"695","","pre_stim","single-stim-button","75","156073","0.0-5.5-0.5","columbia-card-task-hot","true","0","14","695","695","0","test","5","6","3","30","750","180","false","rigged_win","","","",""
"791","","pre_stim","single-stim-button","76","156865","0.0-5.6-0.6","columbia-card-task-hot","true","0","15","791","791","0","test","5","7","3","30","750","210","false","rigged_win","","","",""
"911","","pre_stim","single-stim-button","77","157777","0.0-5.7-0.7","columbia-card-task-hot","true","0","16","911","911","0","test","5","8","3","30","750","240","false","rigged_win","","","",""
"1127","","pre_stim","single-stim-button","78","158904","0.0-5.8-0.8","columbia-card-task-hot","true","0","24","1127","1127","0","test","5","9","3","30","750","270","false","rigged_win","","","",""
"1015","","pre_stim","single-stim-button","79","159920","0.0-5.9-0.9","columbia-card-task-hot","true","0","23","1015","1015","0","test","5","10","3","30","750","300","false","rigged_win","","","",""
"871","","pre_stim","single-stim-button","80","160793","0.0-5.10-0.10","columbia-card-task-hot","true","0","22","871","871","0","test","5","11","3","30","750","330","false","rigged_win","","","",""
"663","","pre_stim","single-stim-button","81","161456","0.0-5.11-0.11","columbia-card-task-hot","true","0","30","663","663","0","test","5","12","3","30","750","360","false","rigged_win","","","",""
"559","","pre_stim","single-stim-button","82","162017","0.0-5.12-0.12","columbia-card-task-hot","true","0","31","559","559","0","test","5","13","3","30","750","390","false","rigged_win","","","",""
"518","","pre_stim","single-stim-button","83","162536","0.0-5.13-0.13","columbia-card-task-hot","true","0","32","518","518","0","test","5","14","3","30","750","420","false","rigged_win","","","",""
"815","","pre_stim","single-stim-button","84","163352","0.0-5.14-0.14","columbia-card-task-hot","true","0","29","815","815","0","test","5","15","3","30","750","450","false","rigged_win","","","",""
"623","","pre_stim","single-stim-button","85","163976","0.0-5.15-0.15","columbia-card-task-hot","true","0","28","623","623","0","test","5","16","3","30","750","480","false","rigged_win","","","",""
"1511","","pre_stim","single-stim-button","86","165488","0.0-5.16-0.16","columbia-card-task-hot","true","0","27","1511","1511","0","test","5","17","3","30","750","510","false","rigged_win","","","",""
"959","","pre_stim","single-stim-button","87","166449","0.0-5.17-0.17","columbia-card-task-hot","true","0","26","959","959","0","test","5","18","3","30","750","540","false","rigged_win","","","",""
"727","","pre_stim","single-stim-button","88","167177","0.0-5.18-0.18","columbia-card-task-hot","true","0","25","727","727","0","test","5","19","3","30","750","570","false","rigged_win","","","",""
"1055","","pre_stim","single-stim-button","89","168232","0.0-5.19-0.19","columbia-card-task-hot","true","0","17","1055","1055","0","test","5","20","3","30","750","600","false","rigged_win","","","",""
"855","","pre_stim","single-stim-button","90","169088","0.0-5.20-0.20","columbia-card-task-hot","true","0","18","855","855","0","test","5","21","3","30","750","630","false","rigged_win","","","",""
"1015","","pre_stim","single-stim-button","91","170104","0.0-5.21-0.21","columbia-card-task-hot","true","0","19","1015","1015","0","test","5","22","3","30","750","660","false","rigged_win","","","",""
"1927","","pre_stim","single-stim-button","92","172032","0.0-5.22-0.22","columbia-card-task-hot","true","0","20","1927","1927","0","test","5","23","3","30","750","690","false","rigged_win","","","",""
"3071","","pre_stim","single-stim-button","93","175105","0.0-5.23-0.23","columbia-card-task-hot","true","0","21","3071","3071","0","test","5","24","3","30","750","720","false","rigged_win","","","",""
"2942","","pre_stim","single-stim-button","94","178048","0.0-5.24-0.24","columbia-card-task-hot","true","0","turnButton","2942","2942","0","test","5","24","3","30","750","720","false","rigged_win","","","",""
"5128","","pre_stim","single-stim-button","95","183177","0.0-5.25-0.25","columbia-card-task-hot","true","0","collectButton","5128","5128","0","test","5","25","3","30","750","720","false","rigged_win","","","",""
"7655","","pre_stim","single-stim-button","96","190834","0.0-6.0-0.0","columbia-card-task-hot","true","0","25","7655","7655","0","test","6","1","3","30","250","30","false","rigged_loss","","","",""
"822","","pre_stim","single-stim-button","97","191657","0.0-6.1-0.1","columbia-card-task-hot","true","0","17","822","822","0","test","6","2","3","30","250","60","false","rigged_loss","","","",""
"1015","","pre_stim","single-stim-button","98","192673","0.0-6.2-0.2","columbia-card-task-hot","true","0","9","1015","1015","0","test","6","3","3","30","250","90","false","rigged_loss","","","",""
"1015","","pre_stim","single-stim-button","99","193689","0.0-6.3-0.3","columbia-card-task-hot","true","0","1","1015","1015","0","test","6","4","3","30","250","120","false","rigged_loss","","","",""
"815","","pre_stim","single-stim-button","100","194505","0.0-6.4-0.4","columbia-card-task-hot","true","0","2","815","815","0","test","6","5","3","30","250","-130","true","rigged_loss","","","",""
"4431","","pre_stim","single-stim-button","101","198937","0.0-6.5-0.5","columbia-card-task-hot","true","0","collectButton","4431","4431","0","test","6","6","3","30","250","-130","true","rigged_loss","","","",""
"7767","","pre_stim","single-stim-button","102","206706","0.0-7.0-0.0","columbia-card-task-hot","true","0","20","7767","7767","0","test","7","1","1","30","250","30","false","rigged_win","","","",""
"1183","","pre_stim","single-stim-button","103","207889","0.0-7.1-0.1","columbia-card-task-hot","true","0","28","1183","1183","0","test","7","2","1","30","250","60","false","rigged_win","","","",""
"543","","pre_stim","single-stim-button","104","208434","0.0-7.2-0.2","columbia-card-task-hot","true","0","29","543","543","0","test","7","3","1","30","250","90","false","rigged_win","","","",""
"1679","","pre_stim","single-stim-button","105","210113","0.0-7.3-0.3","columbia-card-task-hot","true","0","21","1679","1679","0","test","7","4","1","30","250","120","false","rigged_win","","","",""
"599","","pre_stim","single-stim-button","106","210714","0.0-7.4-0.4","columbia-card-task-hot","true","0","13","599","599","0","test","7","5","1","30","250","150","false","rigged_win","","","",""
"591","","pre_stim","single-stim-button","107","211305","0.0-7.5-0.5","columbia-card-task-hot","true","0","14","591","591","0","test","7","6","1","30","250","180","false","rigged_win","","","",""
"519","","pre_stim","single-stim-button","108","211825","0.0-7.6-0.6","columbia-card-task-hot","true","0","22","519","519","0","test","7","7","1","30","250","210","false","rigged_win","","","",""
"575","","pre_stim","single-stim-button","109","212402","0.0-7.7-0.7","columbia-card-task-hot","true","0","30","575","575","0","test","7","8","1","30","250","240","false","rigged_win","","","",""
"1022","","pre_stim","single-stim-button","110","213425","0.0-7.8-0.8","columbia-card-task-hot","true","0","23","1022","1022","0","test","7","9","1","30","250","270","false","rigged_win","","","",""
"903","","pre_stim","single-stim-button","111","214329","0.0-7.9-0.9","columbia-card-task-hot","true","0","15","903","903","0","test","7","10","1","30","250","300","false","rigged_win","","","",""
"1590","","pre_stim","single-stim-button","112","215921","0.0-7.10-0.10","columbia-card-task-hot","true","0","31","1590","1590","0","test","7","11","1","30","250","330","false","rigged_win","","","",""
"1143","","pre_stim","single-stim-button","113","217065","0.0-7.11-0.11","columbia-card-task-hot","true","0","27","1143","1143","0","test","7","12","1","30","250","360","false","rigged_win","","","",""
"783","","pre_stim","single-stim-button","114","217849","0.0-7.12-0.12","columbia-card-task-hot","true","0","26","783","783","0","test","7","13","1","30","250","390","false","rigged_win","","","",""
"1135","","pre_stim","single-stim-button","115","218985","0.0-7.13-0.13","columbia-card-task-hot","true","0","25","1135","1135","0","test","7","14","1","30","250","420","false","rigged_win","","","",""
"863","","pre_stim","single-stim-button","116","219849","0.0-7.14-0.14","columbia-card-task-hot","true","0","17","863","863","0","test","7","15","1","30","250","450","false","rigged_win","","","",""
"663","","pre_stim","single-stim-button","117","220513","0.0-7.15-0.15","columbia-card-task-hot","true","0","18","663","663","0","test","7","16","1","30","250","480","false","rigged_win","","","",""
"591","","pre_stim","single-stim-button","118","221105","0.0-7.16-0.16","columbia-card-task-hot","true","0","19","591","591","0","test","7","17","1","30","250","510","false","rigged_win","","","",""
"1439","","pre_stim","single-stim-button","119","222545","0.0-7.17-0.17","columbia-card-task-hot","true","0","11","1439","1439","0","test","7","18","1","30","250","540","false","rigged_win","","","",""
"1847","","pre_stim","single-stim-button","120","224393","0.0-7.18-0.18","columbia-card-task-hot","true","0","12","1847","1847","0","test","7","19","1","30","250","570","false","rigged_win","","","",""
"1375","","pre_stim","single-stim-button","121","225770","0.0-7.19-0.19","columbia-card-task-hot","true","0","10","1375","1375","0","test","7","20","1","30","250","600","false","rigged_win","","","",""
"3895","","pre_stim","single-stim-button","122","229666","0.0-7.20-0.20","columbia-card-task-hot","true","0","turnButton","3895","3895","0","test","7","20","1","30","250","600","false","rigged_win","","","",""
"5830","","pre_stim","single-stim-button","123","235498","0.0-7.21-0.21","columbia-card-task-hot","true","0","collectButton","5830","5830","0","test","7","21","1","30","250","600","false","rigged_win","","","",""
"10655","","pre_stim","single-stim-button","124","246154","0.0-8.0-0.0","columbia-card-task-hot","true","0","25","10655","10655","0","test","8","1","1","30","250","30","false","rigged_win","","","",""
"870","","pre_stim","single-stim-button","125","247026","0.0-8.1-0.1","columbia-card-task-hot","true","0","26","870","870","0","test","8","2","1","30","250","60","false","rigged_win","","","",""
"1095","","pre_stim","single-stim-button","126","248122","0.0-8.2-0.2","columbia-card-task-hot","true","0","18","1095","1095","0","test","8","3","1","30","250","90","false","rigged_win","","","",""
"551","","pre_stim","single-stim-button","127","248674","0.0-8.3-0.3","columbia-card-task-hot","true","0","17","551","551","0","test","8","4","1","30","250","120","false","rigged_win","","","",""
"678","","pre_stim","single-stim-button","128","249354","0.0-8.4-0.4","columbia-card-task-hot","true","0","9","678","678","0","test","8","5","1","30","250","150","false","rigged_win","","","",""
"1214","","pre_stim","single-stim-button","129","250570","0.0-8.5-0.5","columbia-card-task-hot","true","0","10","1214","1214","0","test","8","6","1","30","250","180","false","rigged_win","","","",""
"670","","pre_stim","single-stim-button","130","251242","0.0-8.6-0.6","columbia-card-task-hot","true","0","2","670","670","0","test","8","7","1","30","250","210","false","rigged_win","","","",""
"542","","pre_stim","single-stim-button","131","251786","0.0-8.7-0.7","columbia-card-task-hot","true","0","1","542","542","0","test","8","8","1","30","250","240","false","rigged_win","","","",""
"694","","pre_stim","single-stim-button","132","252482","0.0-8.8-0.8","columbia-card-task-hot","true","0","3","694","694","0","test","8","9","1","30","250","270","false","rigged_win","","","",""
"791","","pre_stim","single-stim-button","133","253274","0.0-8.9-0.9","columbia-card-task-hot","true","0","11","791","791","0","test","8","10","1","30","250","300","false","rigged_win","","","",""
"646","","pre_stim","single-stim-button","134","253922","0.0-8.10-0.10","columbia-card-task-hot","true","0","19","646","646","0","test","8","11","1","30","250","330","false","rigged_win","","","",""
"750","","pre_stim","single-stim-button","135","254674","0.0-8.11-0.11","columbia-card-task-hot","true","0","27","750","750","0","test","8","12","1","30","250","360","false","rigged_win","","","",""
"702","","pre_stim","single-stim-button","136","255378","0.0-8.12-0.12","columbia-card-task-hot","true","0","28","702","702","0","test","8","13","1","30","250","390","false","rigged_win","","","",""
"1486","","pre_stim","single-stim-button","137","256866","0.0-8.13-0.13","columbia-card-task-hot","true","0","29","1486","1486","0","test","8","14","1","30","250","420","false","rigged_win","","","",""
"942","","pre_stim","single-stim-button","138","257810","0.0-8.14-0.14","columbia-card-task-hot","true","0","21","942","942","0","test","8","15","1","30","250","450","false","rigged_win","","","",""
"1006","","pre_stim","single-stim-button","139","258818","0.0-8.15-0.15","columbia-card-task-hot","true","0","20","1006","1006","0","test","8","16","1","30","250","480","false","rigged_win","","","",""
"966","","pre_stim","single-stim-button","140","259786","0.0-8.16-0.16","columbia-card-task-hot","true","0","12","966","966","0","test","8","17","1","30","250","510","false","rigged_win","","","",""
"559","","pre_stim","single-stim-button","141","260346","0.0-8.17-0.17","columbia-card-task-hot","true","0","13","559","559","0","test","8","18","1","30","250","540","false","rigged_win","","","",""
"526","","pre_stim","single-stim-button","142","260874","0.0-8.18-0.18","columbia-card-task-hot","true","0","5","526","526","0","test","8","19","1","30","250","570","false","rigged_win","","","",""
"558","","pre_stim","single-stim-button","143","261434","0.0-8.19-0.19","columbia-card-task-hot","true","0","4","558","558","0","test","8","20","1","30","250","600","false","rigged_win","","","",""
"574","","pre_stim","single-stim-button","144","262010","0.0-8.20-0.20","columbia-card-task-hot","true","0","6","574","574","0","test","8","21","1","30","250","630","false","rigged_win","","","",""
"550","","pre_stim","single-stim-button","145","262562","0.0-8.21-0.21","columbia-card-task-hot","true","0","14","550","550","0","test","8","22","1","30","250","660","false","rigged_win","","","",""
"622","","pre_stim","single-stim-button","146","263186","0.0-8.22-0.22","columbia-card-task-hot","true","0","22","622","622","0","test","8","23","1","30","250","690","false","rigged_win","","","",""
"886","","pre_stim","single-stim-button","147","264074","0.0-8.23-0.23","columbia-card-task-hot","true","0","30","886","886","0","test","8","24","1","30","250","720","false","rigged_win","","","",""
"1598","","pre_stim","single-stim-button","148","265674","0.0-8.24-0.24","columbia-card-task-hot","true","0","31","1598","1598","0","test","8","25","1","30","250","750","false","rigged_win","","","",""
"2342","","pre_stim","single-stim-button","149","268018","0.0-8.25-0.25","columbia-card-task-hot","true","0","turnButton","2342","2342","0","test","8","25","1","30","250","750","false","rigged_win","","","",""
"4262","","pre_stim","single-stim-button","150","272282","0.0-8.26-0.26","columbia-card-task-hot","true","0","collectButton","4262","4262","0","test","8","26","1","30","250","750","false","rigged_win","","","",""
"7542","","pre_stim","single-stim-button","151","279826","0.0-9.0-0.0","columbia-card-task-hot","true","0","1","7542","7542","0","test","9","1","3","10","750","10","false","rigged_win","","","",""
"734","","pre_stim","single-stim-button","152","280562","0.0-9.1-0.1","columbia-card-task-hot","true","0","2","734","734","0","test","9","2","3","10","750","20","false","rigged_win","","","",""
"543","","pre_stim","single-stim-button","153","281106","0.0-9.2-0.2","columbia-card-task-hot","true","0","3","543","543","0","test","9","3","3","10","750","30","false","rigged_win","","","",""
"470","","pre_stim","single-stim-button","154","281577","0.0-9.3-0.3","columbia-card-task-hot","true","0","4","470","470","0","test","9","4","3","10","750","40","false","rigged_win","","","",""
"495","","pre_stim","single-stim-button","155","282074","0.0-9.4-0.4","columbia-card-task-hot","true","0","5","495","495","0","test","9","5","3","10","750","50","false","rigged_win","","","",""
"822","","pre_stim","single-stim-button","156","282898","0.0-9.5-0.5","columbia-card-task-hot","true","0","6","822","822","0","test","9","6","3","10","750","60","false","rigged_win","","","",""
"790","","pre_stim","single-stim-button","157","283690","0.0-9.6-0.6","columbia-card-task-hot","true","0","7","790","790","0","test","9","7","3","10","750","70","false","rigged_win","","","",""
"702","","pre_stim","single-stim-button","158","284394","0.0-9.7-0.7","columbia-card-task-hot","true","0","8","702","702","0","test","9","8","3","10","750","80","false","rigged_win","","","",""
"959","","pre_stim","single-stim-button","159","285354","0.0-9.8-0.8","columbia-card-task-hot","true","0","16","959","959","0","test","9","9","3","10","750","90","false","rigged_win","","","",""
"1598","","pre_stim","single-stim-button","160","286954","0.0-9.9-0.9","columbia-card-task-hot","true","0","32","1598","1598","0","test","9","10","3","10","750","100","false","rigged_win","","","",""
"1062","","pre_stim","single-stim-button","161","288018","0.0-9.10-0.10","columbia-card-task-hot","true","0","24","1062","1062","0","test","9","11","3","10","750","110","false","rigged_win","","","",""
"1262","","pre_stim","single-stim-button","162","289282","0.0-9.11-0.11","columbia-card-task-hot","true","0","15","1262","1262","0","test","9","12","3","10","750","120","false","rigged_win","","","",""
"1278","","pre_stim","single-stim-button","163","290562","0.0-9.12-0.12","columbia-card-task-hot","true","0","23","1278","1278","0","test","9","13","3","10","750","130","false","rigged_win","","","",""
"1902","","pre_stim","single-stim-button","164","292466","0.0-9.13-0.13","columbia-card-task-hot","true","0","31","1902","1902","0","test","9","14","3","10","750","140","false","rigged_win","","","",""
"1726","","pre_stim","single-stim-button","165","294194","0.0-9.14-0.14","columbia-card-task-hot","true","0","turnButton","1726","1726","0","test","9","14","3","10","750","140","false","rigged_win","","","",""
"4543","","pre_stim","single-stim-button","166","298738","0.0-9.15-0.15","columbia-card-task-hot","true","0","collectButton","4543","4543","0","test","9","15","3","10","750","140","false","rigged_win","","","",""
"6726","","pre_stim","single-stim-button","167","305466","0.0-10.0-0.0","columbia-card-task-hot","true","0","1","6726","6726","0","test","10","1","1","30","750","30","false","rigged_win","","","",""
"647","","pre_stim","single-stim-button","168","306114","0.0-10.1-0.1","columbia-card-task-hot","true","0","2","647","647","0","test","10","2","1","30","750","60","false","rigged_win","","","",""
"455","","pre_stim","single-stim-button","169","306571","0.0-10.2-0.2","columbia-card-task-hot","true","0","3","455","455","0","test","10","3","1","30","750","90","false","rigged_win","","","",""
"494","","pre_stim","single-stim-button","170","307066","0.0-10.3-0.3","columbia-card-task-hot","true","0","4","494","494","0","test","10","4","1","30","750","120","false","rigged_win","","","",""
"511","","pre_stim","single-stim-button","171","307578","0.0-10.4-0.4","columbia-card-task-hot","true","0","5","511","511","0","test","10","5","1","30","750","150","false","rigged_win","","","",""
"638","","pre_stim","single-stim-button","172","308218","0.0-10.5-0.5","columbia-card-task-hot","true","0","6","638","638","0","test","10","6","1","30","750","180","false","rigged_win","","","",""
"1398","","pre_stim","single-stim-button","173","309618","0.0-10.6-0.6","columbia-card-task-hot","true","0","7","1398","1398","0","test","10","7","1","30","750","210","false","rigged_win","","","",""
"502","","pre_stim","single-stim-button","174","310122","0.0-10.7-0.7","columbia-card-task-hot","true","0","8","502","502","0","test","10","8","1","30","750","240","false","rigged_win","","","",""
"495","","pre_stim","single-stim-button","175","310618","0.0-10.8-0.8","columbia-card-task-hot","true","0","16","495","495","0","test","10","9","1","30","750","270","false","rigged_win","","","",""
"719","","pre_stim","single-stim-button","176","311338","0.0-10.9-0.9","columbia-card-task-hot","true","0","15","719","719","0","test","10","10","1","30","750","300","false","rigged_win","","","",""
"535","","pre_stim","single-stim-button","177","311874","0.0-10.10-0.10","columbia-card-task-hot","true","0","23","535","535","0","test","10","11","1","30","750","330","false","rigged_win","","","",""
"542","","pre_stim","single-stim-button","178","312418","0.0-10.11-0.11","columbia-card-task-hot","true","0","24","542","542","0","test","10","12","1","30","750","360","false","rigged_win","","","",""
"591","","pre_stim","single-stim-button","179","313011","0.0-10.12-0.12","columbia-card-task-hot","true","0","32","591","591","0","test","10","13","1","30","750","390","false","rigged_win","","","",""
"501","","pre_stim","single-stim-button","180","313514","0.0-10.13-0.13","columbia-card-task-hot","true","0","31","501","501","0","test","10","14","1","30","750","420","false","rigged_win","","","",""
"478","","pre_stim","single-stim-button","181","313994","0.0-10.14-0.14","columbia-card-task-hot","true","0","30","478","478","0","test","10","15","1","30","750","450","false","rigged_win","","","",""
"1719","","pre_stim","single-stim-button","182","315714","0.0-10.15-0.15","columbia-card-task-hot","true","0","14","1719","1719","0","test","10","16","1","30","750","480","false","rigged_win","","","",""
"1407","","pre_stim","single-stim-button","183","317122","0.0-10.16-0.16","columbia-card-task-hot","true","0","22","1407","1407","0","test","10","17","1","30","750","510","false","rigged_win","","","",""
"703","","pre_stim","single-stim-button","184","317826","0.0-10.17-0.17","columbia-card-task-hot","true","0","21","703","703","0","test","10","18","1","30","750","540","false","rigged_win","","","",""
"614","","pre_stim","single-stim-button","185","318442","0.0-10.18-0.18","columbia-card-task-hot","true","0","29","614","614","0","test","10","19","1","30","750","570","false","rigged_win","","","",""
"1118","","pre_stim","single-stim-button","186","319562","0.0-10.19-0.19","columbia-card-task-hot","true","0","13","1118","1118","0","test","10","20","1","30","750","600","false","rigged_win","","","",""
"1271","","pre_stim","single-stim-button","187","320834","0.0-10.20-0.20","columbia-card-task-hot","true","0","28","1271","1271","0","test","10","21","1","30","750","630","false","rigged_win","","","",""
"991","","pre_stim","single-stim-button","188","321827","0.0-10.21-0.21","columbia-card-task-hot","true","0","20","991","991","0","test","10","22","1","30","750","660","false","rigged_win","","","",""
"1005","","pre_stim","single-stim-button","189","322834","0.0-10.22-0.22","columbia-card-task-hot","true","0","12","1005","1005","0","test","10","23","1","30","750","690","false","rigged_win","","","",""
"870","","pre_stim","single-stim-button","190","323706","0.0-10.23-0.23","columbia-card-task-hot","true","0","11","870","870","0","test","10","24","1","30","750","720","false","rigged_win","","","",""
"815","","pre_stim","single-stim-button","191","324522","0.0-10.24-0.24","columbia-card-task-hot","true","0","19","815","815","0","test","10","25","1","30","750","750","false","rigged_win","","","",""
"2334","","pre_stim","single-stim-button","192","326858","0.0-10.25-0.25","columbia-card-task-hot","true","0","27","2334","2334","0","test","10","26","1","30","750","780","false","rigged_win","","","",""
"1741","","pre_stim","single-stim-button","193","328602","0.0-10.26-0.26","columbia-card-task-hot","true","0","turnButton","1741","1741","0","test","10","26","1","30","750","780","false","rigged_win","","","",""
"4461","","pre_stim","single-stim-button","194","333066","0.0-10.27-0.27","columbia-card-task-hot","true","0","collectButton","4461","4461","0","test","10","27","1","30","750","780","false","rigged_win","","","",""
"7535","","pre_stim","single-stim-button","195","340603","0.0-11.0-0.0","columbia-card-task-hot","true","0","1","7535","7535","0","test","11","1","1","10","250","10","false","rigged_loss","","","",""
"862","","pre_stim","single-stim-button","196","341466","0.0-11.1-0.1","columbia-card-task-hot","true","0","9","862","862","0","test","11","2","1","10","250","-240","true","rigged_loss","","","",""
"2278","","pre_stim","single-stim-button","197","343746","0.0-11.2-0.2","columbia-card-task-hot","true","0","collectButton","2278","2278","0","test","11","3","1","10","250","-240","true","rigged_loss","","","",""
"8087","","pre_stim","single-stim-button","198","351834","0.0-12.0-0.0","columbia-card-task-hot","true","0","25","8087","8087","0","test","12","1","1","30","750","30","false","rigged_loss","","","",""
"550","","pre_stim","single-stim-button","199","352386","0.0-12.1-0.1","columbia-card-task-hot","true","0","26","550","550","0","test","12","2","1","30","750","-720","true","rigged_loss","","","",""
"1991","","pre_stim","single-stim-button","200","354378","0.0-12.2-0.2","columbia-card-task-hot","true","0","collectButton","1991","1991","0","test","12","3","1","30","750","-720","true","rigged_loss","","","",""
"7647","","pre_stim","single-stim-button","201","362027","0.0-13.0-0.0","columbia-card-task-hot","true","0","1","7647","7647","0","test","13","1","3","30","750","30","false","rigged_loss","","","",""
"790","","pre_stim","single-stim-button","202","362819","0.0-13.1-0.1","columbia-card-task-hot","true","0","2","790","790","0","test","13","2","3","30","750","60","false","rigged_loss","","","",""
"670","","pre_stim","single-stim-button","203","363491","0.0-13.2-0.2","columbia-card-task-hot","true","0","3","670","670","0","test","13","3","3","30","750","90","false","rigged_loss","","","",""
"550","","pre_stim","single-stim-button","204","364043","0.0-13.3-0.3","columbia-card-task-hot","true","0","4","550","550","0","test","13","4","3","30","750","120","false","rigged_loss","","","",""
"638","","pre_stim","single-stim-button","205","364683","0.0-13.4-0.4","columbia-card-task-hot","true","0","5","638","638","0","test","13","5","3","30","750","-630","true","rigged_loss","","","",""
"1687","","pre_stim","single-stim-button","206","366371","0.0-13.5-0.5","columbia-card-task-hot","true","0","collectButton","1687","1687","0","test","13","6","3","30","750","-630","true","rigged_loss","","","",""
"6598","","pre_stim","single-stim-button","207","372971","0.0-14.0-0.0","columbia-card-task-hot","true","0","26","6598","6598","0","test","14","1","1","30","250","30","false","rigged_loss","","","",""
"726","","pre_stim","single-stim-button","208","373699","0.0-14.1-0.1","columbia-card-task-hot","true","0","27","726","726","0","test","14","2","1","30","250","60","false","rigged_loss","","","",""
"646","","pre_stim","single-stim-button","209","374347","0.0-14.2-0.2","columbia-card-task-hot","true","0","28","646","646","0","test","14","3","1","30","250","-190","true","rigged_loss","","","",""
"3477","","pre_stim","single-stim-button","210","377827","0.0-14.3-0.3","columbia-card-task-hot","true","0","collectButton","3477","3477","0","test","14","4","1","30","250","-190","true","rigged_loss","","","",""
"8679","","pre_stim","single-stim-button","211","386507","0.0-15.0-0.0","columbia-card-task-hot","true","0","1","8679","8679","0","test","15","1","3","10","250","10","false","rigged_win","","","",""
"1046","","pre_stim","single-stim-button","212","387555","0.0-15.1-0.1","columbia-card-task-hot","true","0","2","1046","1046","0","test","15","2","3","10","250","20","false","rigged_win","","","",""
"822","","pre_stim","single-stim-button","213","388379","0.0-15.2-0.2","columbia-card-task-hot","true","0","3","822","822","0","test","15","3","3","10","250","30","false","rigged_win","","","",""
"1150","","pre_stim","single-stim-button","214","389531","0.0-15.3-0.3","columbia-card-task-hot","true","0","4","1150","1150","0","test","15","4","3","10","250","40","false","rigged_win","","","",""
"862","","pre_stim","single-stim-button","215","390395","0.0-15.4-0.4","columbia-card-task-hot","true","0","5","862","862","0","test","15","5","3","10","250","50","false","rigged_win","","","",""
"782","","pre_stim","single-stim-button","216","391179","0.0-15.5-0.5","columbia-card-task-hot","true","0","6","782","782","0","test","15","6","3","10","250","60","false","rigged_win","","","",""
"1086","","pre_stim","single-stim-button","217","392267","0.0-15.6-0.6","columbia-card-task-hot","true","0","7","1086","1086","0","test","15","7","3","10","250","70","false","rigged_win","","","",""
"926","","pre_stim","single-stim-button","218","393195","0.0-15.7-0.7","columbia-card-task-hot","true","0","8","926","926","0","test","15","8","3","10","250","80","false","rigged_win","","","",""
"1534","","pre_stim","single-stim-button","219","394731","0.0-15.8-0.8","columbia-card-task-hot","true","0","16","1534","1534","0","test","15","9","3","10","250","90","false","rigged_win","","","",""
"1462","","pre_stim","single-stim-button","220","396195","0.0-15.9-0.9","columbia-card-task-hot","true","0","15","1462","1462","0","test","15","10","3","10","250","100","false","rigged_win","","","",""
"1366","","pre_stim","single-stim-button","221","397563","0.0-15.10-0.10","columbia-card-task-hot","true","0","23","1366","1366","0","test","15","11","3","10","250","110","false","rigged_win","","","",""
"1086","","pre_stim","single-stim-button","222","398651","0.0-15.11-0.11","columbia-card-task-hot","true","0","24","1086","1086","0","test","15","12","3","10","250","120","false","rigged_win","","","",""
"1030","","pre_stim","single-stim-button","223","399683","0.0-15.12-0.12","columbia-card-task-hot","true","0","32","1030","1030","0","test","15","13","3","10","250","130","false","rigged_win","","","",""
"982","","pre_stim","single-stim-button","224","400667","0.0-15.13-0.13","columbia-card-task-hot","true","0","31","982","982","0","test","15","14","3","10","250","140","false","rigged_win","","","",""
"1742","","pre_stim","single-stim-button","225","402411","0.0-15.14-0.14","columbia-card-task-hot","true","0","30","1742","1742","0","test","15","15","3","10","250","150","false","rigged_win","","","",""
"1582","","pre_stim","single-stim-button","226","403995","0.0-15.15-0.15","columbia-card-task-hot","true","0","22","1582","1582","0","test","15","16","3","10","250","160","false","rigged_win","","","",""
"2398","","pre_stim","single-stim-button","227","406395","0.0-15.16-0.16","columbia-card-task-hot","true","0","turnButton","2398","2398","0","test","15","16","3","10","250","160","false","rigged_win","","","",""
"3454","","pre_stim","single-stim-button","228","409851","0.0-15.17-0.17","columbia-card-task-hot","true","0","collectButton","3454","3454","0","test","15","17","3","10","250","160","false","rigged_win","","","",""
"6638","","pre_stim","single-stim-button","229","416491","0.0-16.0-0.0","columbia-card-task-hot","true","0","1","6638","6638","0","test","16","1","3","30","750","30","false","rigged_win","","","",""
"1750","","pre_stim","single-stim-button","230","418242","0.0-16.1-0.1","columbia-card-task-hot","true","0","2","1750","1750","0","test","16","2","3","30","750","60","false","rigged_win","","","",""
"963","","pre_stim","single-stim-button","231","419207","0.0-16.2-0.2","columbia-card-task-hot","true","0","3","963","963","0","test","16","3","3","30","750","90","false","rigged_win","","","",""
"1158","","pre_stim","single-stim-button","232","420368","0.0-16.3-0.3","columbia-card-task-hot","true","0","4","1158","1158","0","test","16","4","3","30","750","120","false","rigged_win","","","",""
"1582","","pre_stim","single-stim-button","233","421952","0.0-16.4-0.4","columbia-card-task-hot","true","0","5","1582","1582","0","test","16","5","3","30","750","150","false","rigged_win","","","",""
"950","","pre_stim","single-stim-button","234","422903","0.0-16.5-0.5","columbia-card-task-hot","true","0","6","950","950","0","test","16","6","3","30","750","180","false","rigged_win","","","",""
"1198","","pre_stim","single-stim-button","235","424104","0.0-16.6-0.6","columbia-card-task-hot","true","0","7","1198","1198","0","test","16","7","3","30","750","210","false","rigged_win","","","",""
"1510","","pre_stim","single-stim-button","236","425615","0.0-16.7-0.7","columbia-card-task-hot","true","0","8","1510","1510","0","test","16","8","3","30","750","240","false","rigged_win","","","",""
"1350","","pre_stim","single-stim-button","237","426967","0.0-16.8-0.8","columbia-card-task-hot","true","0","16","1350","1350","0","test","16","9","3","30","750","270","false","rigged_win","","","",""
"1959","","pre_stim","single-stim-button","238","428927","0.0-16.9-0.9","columbia-card-task-hot","true","0","24","1959","1959","0","test","16","10","3","30","750","300","false","rigged_win","","","",""
"686","","pre_stim","single-stim-button","239","429616","0.0-16.10-0.10","columbia-card-task-hot","true","0","23","686","686","0","test","16","11","3","30","750","330","false","rigged_win","","","",""
"718","","pre_stim","single-stim-button","240","430335","0.0-16.11-0.11","columbia-card-task-hot","true","0","31","718","718","0","test","16","12","3","30","750","360","false","rigged_win","","","",""
"662","","pre_stim","single-stim-button","241","430999","0.0-16.12-0.12","columbia-card-task-hot","true","0","32","662","662","0","test","16","13","3","30","750","390","false","rigged_win","","","",""
"1407","","pre_stim","single-stim-button","242","432408","0.0-16.13-0.13","columbia-card-task-hot","true","0","15","1407","1407","0","test","16","14","3","30","750","420","false","rigged_win","","","",""
"2262","","pre_stim","single-stim-button","243","434672","0.0-16.14-0.14","columbia-card-task-hot","true","0","25","2262","2262","0","test","16","15","3","30","750","450","false","rigged_win","","","",""
"2077","","pre_stim","single-stim-button","244","436751","0.0-16.15-0.15","columbia-card-task-hot","true","0","26","2077","2077","0","test","16","16","3","30","750","480","false","rigged_win","","","",""
"3910","","pre_stim","single-stim-button","245","440663","0.0-16.16-0.16","columbia-card-task-hot","true","0","turnButton","3910","3910","0","test","16","16","3","30","750","480","false","rigged_win","","","",""
"4302","","pre_stim","single-stim-button","246","444967","0.0-16.17-0.17","columbia-card-task-hot","true","0","collectButton","4302","4302","0","test","16","17","3","30","750","480","false","rigged_win","","","",""
"7191","","pre_stim","single-stim-button","247","452159","0.0-17.0-0.0","columbia-card-task-hot","true","0","1","7191","7191","0","test","17","1","1","10","750","10","false","rigged_win","","","",""
"678","","pre_stim","single-stim-button","248","452840","0.0-17.1-0.1","columbia-card-task-hot","true","0","2","678","678","0","test","17","2","1","10","750","20","false","rigged_win","","","",""
"454","","pre_stim","single-stim-button","249","453296","0.0-17.2-0.2","columbia-card-task-hot","true","0","3","454","454","0","test","17","3","1","10","750","30","false","rigged_win","","","",""
"478","","pre_stim","single-stim-button","250","453776","0.0-17.3-0.3","columbia-card-task-hot","true","0","4","478","478","0","test","17","4","1","10","750","40","false","rigged_win","","","",""
"1118","","pre_stim","single-stim-button","251","454896","0.0-17.4-0.4","columbia-card-task-hot","true","0","6","1118","1118","0","test","17","5","1","10","750","50","false","rigged_win","","","",""
"582","","pre_stim","single-stim-button","252","455480","0.0-17.5-0.5","columbia-card-task-hot","true","0","5","582","582","0","test","17","6","1","10","750","60","false","rigged_win","","","",""
"766","","pre_stim","single-stim-button","253","456248","0.0-17.6-0.6","columbia-card-task-hot","true","0","7","766","766","0","test","17","7","1","10","750","70","false","rigged_win","","","",""
"678","","pre_stim","single-stim-button","254","456928","0.0-17.7-0.7","columbia-card-task-hot","true","0","8","678","678","0","test","17","8","1","10","750","80","false","rigged_win","","","",""
"830","","pre_stim","single-stim-button","255","457759","0.0-17.8-0.8","columbia-card-task-hot","true","0","16","830","830","0","test","17","9","1","10","750","90","false","rigged_win","","","",""
"910","","pre_stim","single-stim-button","256","458672","0.0-17.9-0.9","columbia-card-task-hot","true","0","15","910","910","0","test","17","10","1","10","750","100","false","rigged_win","","","",""
"758","","pre_stim","single-stim-button","257","459432","0.0-17.10-0.10","columbia-card-task-hot","true","0","23","758","758","0","test","17","11","1","10","750","110","false","rigged_win","","","",""
"678","","pre_stim","single-stim-button","258","460112","0.0-17.11-0.11","columbia-card-task-hot","true","0","24","678","678","0","test","17","12","1","10","750","120","false","rigged_win","","","",""
"742","","pre_stim","single-stim-button","259","460856","0.0-17.12-0.12","columbia-card-task-hot","true","0","32","742","742","0","test","17","13","1","10","750","130","false","rigged_win","","","",""
"742","","pre_stim","single-stim-button","260","461599","0.0-17.13-0.13","columbia-card-task-hot","true","0","31","742","742","0","test","17","14","1","10","750","140","false","rigged_win","","","",""
"718","","pre_stim","single-stim-button","261","462320","0.0-17.14-0.14","columbia-card-task-hot","true","0","30","718","718","0","test","17","15","1","10","750","150","false","rigged_win","","","",""
"949","","pre_stim","single-stim-button","262","463272","0.0-17.15-0.15","columbia-card-task-hot","true","0","21","949","949","0","test","17","16","1","10","750","160","false","rigged_win","","","",""
"1262","","pre_stim","single-stim-button","263","464535","0.0-17.16-0.16","columbia-card-task-hot","true","0","12","1262","1262","0","test","17","17","1","10","750","170","false","rigged_win","","","",""
"2998","","pre_stim","single-stim-button","264","467536","0.0-17.17-0.17","columbia-card-task-hot","true","0","20","2998","2998","0","test","17","18","1","10","750","180","false","rigged_win","","","",""
"1350","","pre_stim","single-stim-button","265","468888","0.0-17.18-0.18","columbia-card-task-hot","true","0","28","1350","1350","0","test","17","19","1","10","750","190","false","rigged_win","","","",""
"862","","pre_stim","single-stim-button","266","469752","0.0-17.19-0.19","columbia-card-task-hot","true","0","29","862","862","0","test","17","20","1","10","750","200","false","rigged_win","","","",""
"1582","","pre_stim","single-stim-button","267","471335","0.0-17.20-0.20","columbia-card-task-hot","true","0","27","1582","1582","0","test","17","21","1","10","750","210","false","rigged_win","","","",""
"1102","","pre_stim","single-stim-button","268","472440","0.0-17.21-0.21","columbia-card-task-hot","true","0","26","1102","1102","0","test","17","22","1","10","750","220","false","rigged_win","","","",""
"1686","","pre_stim","single-stim-button","269","474127","0.0-17.22-0.22","columbia-card-task-hot","true","0","17","1686","1686","0","test","17","23","1","10","750","230","false","rigged_win","","","",""
"1494","","pre_stim","single-stim-button","270","475623","0.0-17.23-0.23","columbia-card-task-hot","true","0","turnButton","1494","1494","0","test","17","23","1","10","750","230","false","rigged_win","","","",""
"4635","","pre_stim","single-stim-button","271","480260","0.0-17.24-0.24","columbia-card-task-hot","true","0","collectButton","4635","4635","0","test","17","24","1","10","750","230","false","rigged_win","","","",""
"6535","","pre_stim","single-stim-button","272","486797","0.0-18.0-0.0","columbia-card-task-hot","true","0","1","6535","6535","0","test","18","1","1","10","250","10","false","rigged_win","","","",""
"1206","","pre_stim","single-stim-button","273","488005","0.0-18.1-0.1","columbia-card-task-hot","true","0","2","1206","1206","0","test","18","2","1","10","250","20","false","rigged_win","","","",""
"598","","pre_stim","single-stim-button","274","488605","0.0-18.2-0.2","columbia-card-task-hot","true","0","3","598","598","0","test","18","3","1","10","250","30","false","rigged_win","","","",""
"525","","pre_stim","single-stim-button","275","489133","0.0-18.3-0.3","columbia-card-task-hot","true","0","4","525","525","0","test","18","4","1","10","250","40","false","rigged_win","","","",""
"501","","pre_stim","single-stim-button","276","489637","0.0-18.4-0.4","columbia-card-task-hot","true","0","5","501","501","0","test","18","5","1","10","250","50","false","rigged_win","","","",""
"542","","pre_stim","single-stim-button","277","490181","0.0-18.5-0.5","columbia-card-task-hot","true","0","6","542","542","0","test","18","6","1","10","250","60","false","rigged_win","","","",""
"470","","pre_stim","single-stim-button","278","490653","0.0-18.6-0.6","columbia-card-task-hot","true","0","7","470","470","0","test","18","7","1","10","250","70","false","rigged_win","","","",""
"462","","pre_stim","single-stim-button","279","491117","0.0-18.7-0.7","columbia-card-task-hot","true","0","8","462","462","0","test","18","8","1","10","250","80","false","rigged_win","","","",""
"509","","pre_stim","single-stim-button","280","491629","0.0-18.8-0.8","columbia-card-task-hot","true","0","16","509","509","0","test","18","9","1","10","250","90","false","rigged_win","","","",""
"998","","pre_stim","single-stim-button","281","492629","0.0-18.9-0.9","columbia-card-task-hot","true","0","15","998","998","0","test","18","10","1","10","250","100","false","rigged_win","","","",""
"574","","pre_stim","single-stim-button","282","493205","0.0-18.10-0.10","columbia-card-task-hot","true","0","14","574","574","0","test","18","11","1","10","250","110","false","rigged_win","","","",""
"717","","pre_stim","single-stim-button","283","493925","0.0-18.11-0.11","columbia-card-task-hot","true","0","22","717","717","0","test","18","12","1","10","250","120","false","rigged_win","","","",""
"589","","pre_stim","single-stim-button","284","494517","0.0-18.12-0.12","columbia-card-task-hot","true","0","23","589","589","0","test","18","13","1","10","250","130","false","rigged_win","","","",""
"613","","pre_stim","single-stim-button","285","495133","0.0-18.13-0.13","columbia-card-task-hot","true","0","24","613","613","0","test","18","14","1","10","250","140","false","rigged_win","","","",""
"622","","pre_stim","single-stim-button","286","495757","0.0-18.14-0.14","columbia-card-task-hot","true","0","32","622","622","0","test","18","15","1","10","250","150","false","rigged_win","","","",""
"462","","pre_stim","single-stim-button","287","496221","0.0-18.15-0.15","columbia-card-task-hot","true","0","31","462","462","0","test","18","16","1","10","250","160","false","rigged_win","","","",""
"615","","pre_stim","single-stim-button","288","496837","0.0-18.16-0.16","columbia-card-task-hot","true","0","30","615","615","0","test","18","17","1","10","250","170","false","rigged_win","","","",""
"622","","pre_stim","single-stim-button","289","497461","0.0-18.17-0.17","columbia-card-task-hot","true","0","29","622","622","0","test","18","18","1","10","250","180","false","rigged_win","","","",""
"733","","pre_stim","single-stim-button","290","498197","0.0-18.18-0.18","columbia-card-task-hot","true","0","21","733","733","0","test","18","19","1","10","250","190","false","rigged_win","","","",""
"582","","pre_stim","single-stim-button","291","498781","0.0-18.19-0.19","columbia-card-task-hot","true","0","13","582","582","0","test","18","20","1","10","250","200","false","rigged_win","","","",""
"1933","","pre_stim","single-stim-button","292","500717","0.0-18.20-0.20","columbia-card-task-hot","true","0","25","1933","1933","0","test","18","21","1","10","250","210","false","rigged_win","","","",""
"950","","pre_stim","single-stim-button","293","501669","0.0-18.21-0.21","columbia-card-task-hot","true","0","26","950","950","0","test","18","22","1","10","250","220","false","rigged_win","","","",""
"1639","","pre_stim","single-stim-button","294","503309","0.0-18.22-0.22","columbia-card-task-hot","true","0","27","1639","1639","0","test","18","23","1","10","250","230","false","rigged_win","","","",""
"782","","pre_stim","single-stim-button","295","504093","0.0-18.23-0.23","columbia-card-task-hot","true","0","28","782","782","0","test","18","24","1","10","250","240","false","rigged_win","","","",""
"1461","","pre_stim","single-stim-button","296","505556","0.0-18.24-0.24","columbia-card-task-hot","true","0","20","1461","1461","0","test","18","25","1","10","250","250","false","rigged_win","","","",""
"2062","","pre_stim","single-stim-button","297","507621","0.0-18.25-0.25","columbia-card-task-hot","true","0","turnButton","2062","2062","0","test","18","25","1","10","250","250","false","rigged_win","","","",""
"4694","","pre_stim","single-stim-button","298","512317","0.0-18.26-0.26","columbia-card-task-hot","true","0","collectButton","4694","4694","0","test","18","26","1","10","250","250","false","rigged_win","","","",""
"6406","","pre_stim","single-stim-button","299","518725","0.0-19.0-0.0","columbia-card-task-hot","true","0","29","6406","6406","0","test","19","1","3","10","250","10","false","rigged_loss","","","",""
"717","","pre_stim","single-stim-button","300","519445","0.0-19.1-0.1","columbia-card-task-hot","true","0","30","717","717","0","test","19","2","3","10","250","20","false","rigged_loss","","","",""
"877","","pre_stim","single-stim-button","301","520325","0.0-19.2-0.2","columbia-card-task-hot","true","0","31","877","877","0","test","19","3","3","10","250","30","false","rigged_loss","","","",""
"661","","pre_stim","single-stim-button","302","520989","0.0-19.3-0.3","columbia-card-task-hot","true","0","32","661","661","0","test","19","4","3","10","250","40","false","rigged_loss","","","",""
"685","","pre_stim","single-stim-button","303","521677","0.0-19.4-0.4","columbia-card-task-hot","true","0","24","685","685","0","test","19","5","3","10","250","50","false","rigged_loss","","","",""
"606","","pre_stim","single-stim-button","304","522285","0.0-19.5-0.5","columbia-card-task-hot","true","0","23","606","606","0","test","19","6","3","10","250","60","false","rigged_loss","","","",""
"1165","","pre_stim","single-stim-button","305","523453","0.0-19.6-0.6","columbia-card-task-hot","true","0","22","1165","1165","0","test","19","7","3","10","250","-190","true","rigged_loss","","","",""
"8374","","pre_stim","single-stim-button","306","531829","0.0-19.7-0.7","columbia-card-task-hot","true","0","collectButton","8374","8374","0","test","19","8","3","10","250","-190","true","rigged_loss","","","",""
"7691","","pre_stim","single-stim-button","307","539522","0.0-20.0-0.0","columbia-card-task-hot","true","0","28","7691","7691","0","test","20","1","1","10","250","10","false","rigged_win","","","",""
"1493","","pre_stim","single-stim-button","308","541018","0.0-20.1-0.1","columbia-card-task-hot","true","0","20","1493","1493","0","test","20","2","1","10","250","20","false","rigged_win","","","",""
"1485","","pre_stim","single-stim-button","309","542506","0.0-20.2-0.2","columbia-card-task-hot","true","0","12","1485","1485","0","test","20","3","1","10","250","30","false","rigged_win","","","",""
"677","","pre_stim","single-stim-button","310","543186","0.0-20.3-0.3","columbia-card-task-hot","true","0","4","677","677","0","test","20","4","1","10","250","40","false","rigged_win","","","",""
"685","","pre_stim","single-stim-button","311","543874","0.0-20.4-0.4","columbia-card-task-hot","true","0","5","685","685","0","test","20","5","1","10","250","50","false","rigged_win","","","",""
"669","","pre_stim","single-stim-button","312","544546","0.0-20.5-0.5","columbia-card-task-hot","true","0","13","669","669","0","test","20","6","1","10","250","60","false","rigged_win","","","",""
"565","","pre_stim","single-stim-button","313","545114","0.0-20.6-0.6","columbia-card-task-hot","true","0","21","565","565","0","test","20","7","1","10","250","70","false","rigged_win","","","",""
"661","","pre_stim","single-stim-button","314","545778","0.0-20.7-0.7","columbia-card-task-hot","true","0","29","661","661","0","test","20","8","1","10","250","80","false","rigged_win","","","",""
"693","","pre_stim","single-stim-button","315","546474","0.0-20.8-0.8","columbia-card-task-hot","true","0","30","693","693","0","test","20","9","1","10","250","90","false","rigged_win","","","",""
"526","","pre_stim","single-stim-button","316","547002","0.0-20.9-0.9","columbia-card-task-hot","true","0","22","526","526","0","test","20","10","1","10","250","100","false","rigged_win","","","",""
"710","","pre_stim","single-stim-button","317","547714","0.0-20.10-0.10","columbia-card-task-hot","true","0","14","710","710","0","test","20","11","1","10","250","110","false","rigged_win","","","",""
"781","","pre_stim","single-stim-button","318","548498","0.0-20.11-0.11","columbia-card-task-hot","true","0","6","781","781","0","test","20","12","1","10","250","120","false","rigged_win","","","",""
"623","","pre_stim","single-stim-button","319","549122","0.0-20.12-0.12","columbia-card-task-hot","true","0","7","623","623","0","test","20","13","1","10","250","130","false","rigged_win","","","",""
"621","","pre_stim","single-stim-button","320","549746","0.0-20.13-0.13","columbia-card-task-hot","true","0","8","621","621","0","test","20","14","1","10","250","140","false","rigged_win","","","",""
"774","","pre_stim","single-stim-button","321","550522","0.0-20.14-0.14","columbia-card-task-hot","true","0","16","774","774","0","test","20","15","1","10","250","150","false","rigged_win","","","",""
"629","","pre_stim","single-stim-button","322","551154","0.0-20.15-0.15","columbia-card-task-hot","true","0","15","629","629","0","test","20","16","1","10","250","160","false","rigged_win","","","",""
"854","","pre_stim","single-stim-button","323","552010","0.0-20.16-0.16","columbia-card-task-hot","true","0","23","854","854","0","test","20","17","1","10","250","170","false","rigged_win","","","",""
"655","","pre_stim","single-stim-button","324","552666","0.0-20.17-0.17","columbia-card-task-hot","true","0","24","655","655","0","test","20","18","1","10","250","180","false","rigged_win","","","",""
"773","","pre_stim","single-stim-button","325","553442","0.0-20.18-0.18","columbia-card-task-hot","true","0","32","773","773","0","test","20","19","1","10","250","190","false","rigged_win","","","",""
"702","","pre_stim","single-stim-button","326","554146","0.0-20.19-0.19","columbia-card-task-hot","true","0","31","702","702","0","test","20","20","1","10","250","200","false","rigged_win","","","",""
"3254","","pre_stim","single-stim-button","327","557402","0.0-20.20-0.20","columbia-card-task-hot","true","0","27","3254","3254","0","test","20","21","1","10","250","210","false","rigged_win","","","",""
"1278","","pre_stim","single-stim-button","328","558682","0.0-20.21-0.21","columbia-card-task-hot","true","0","19","1278","1278","0","test","20","22","1","10","250","220","false","rigged_win","","","",""
"2110","","pre_stim","single-stim-button","329","560794","0.0-20.22-0.22","columbia-card-task-hot","true","0","turnButton","2110","2110","0","test","20","22","1","10","250","220","false","rigged_win","","","",""
"4901","","pre_stim","single-stim-button","330","565698","0.0-20.23-0.23","columbia-card-task-hot","true","0","collectButton","4901","4901","0","test","20","23","1","10","250","220","false","rigged_win","","","",""
"50098","{""Q0"":""keine Verlustkarte anklicken nach Sichtung und anschl. Vermischung"",""Q1"":""Nein""}","post task questions","survey-text","331","615799","0.0-21.0","columbia-card-task-hot","true","0","","","","","","","","","","","","","","true","0","",""
"5464","","","poldrack-text","332","622280","0.0-22.0","columbia-card-task-hot","true","0","","","5464","1000","","","","","","","","","","","","<div class = centerbox><p class = center-block-text>Finished with this task.</p></div>","17"
