"rt","responses","trial_id","trial_type","trial_index","time_elapsed","internal_node_id","exp_id","full_screen","focus_shifts","mouse_click","stim_duration","block_duration","timing_post_trial","exp_stage","which_round","num_click_in_round","num_loss_cards","gain_amount","loss_amount","round_points","clicked_on_loss_card","round_type","credit_var","performance_var","text","key_press"
"16019","{""Q0"":""-SF4j""}","pre task questions","survey-text","0","16023","0.0-0.0","columbia-card-task-hot","true","0","","","","","","","","","","","","","","","","",""
"6929","","pre_stim","single-stim-button","1","23966","0.0-1.0-0.0","columbia-card-task-hot","true","0","9","6929","6929","0","test","1","1","1","10","250","10","false","rigged_win","","","",""
"1278","","pre_stim","single-stim-button","2","25245","0.0-1.1-0.1","columbia-card-task-hot","true","0","10","1278","1278","0","test","1","2","1","10","250","20","false","rigged_win","","","",""
"951","","pre_stim","single-stim-button","3","26197","0.0-1.2-0.2","columbia-card-task-hot","true","0","11","951","951","0","test","1","3","1","10","250","30","false","rigged_win","","","",""
"1024","","pre_stim","single-stim-button","4","27221","0.0-1.3-0.3","columbia-card-task-hot","true","0","12","1024","1024","0","test","1","4","1","10","250","40","false","rigged_win","","","",""
"1551","","pre_stim","single-stim-button","5","28774","0.0-1.4-0.4","columbia-card-task-hot","true","0","13","1551","1551","0","test","1","5","1","10","250","50","false","rigged_win","","","",""
"1255","","pre_stim","single-stim-button","6","30029","0.0-1.5-0.5","columbia-card-task-hot","true","0","14","1255","1255","0","test","1","6","1","10","250","60","false","rigged_win","","","",""
"1577","","pre_stim","single-stim-button","7","31608","0.0-1.6-0.6","columbia-card-task-hot","true","0","15","1577","1577","0","test","1","7","1","10","250","70","false","rigged_win","","","",""
"1511","","pre_stim","single-stim-button","8","33120","0.0-1.7-0.7","columbia-card-task-hot","true","0","16","1511","1511","0","test","1","8","1","10","250","80","false","rigged_win","","","",""
"1254","","pre_stim","single-stim-button","9","34376","0.0-1.8-0.8","columbia-card-task-hot","true","0","24","1254","1254","0","test","1","9","1","10","250","90","false","rigged_win","","","",""
"1151","","pre_stim","single-stim-button","10","35528","0.0-1.9-0.9","columbia-card-task-hot","true","0","23","1151","1151","0","test","1","10","1","10","250","100","false","rigged_win","","","",""
"967","","pre_stim","single-stim-button","11","36496","0.0-1.10-0.10","columbia-card-task-hot","true","0","22","967","967","0","test","1","11","1","10","250","110","false","rigged_win","","","",""
"2303","","pre_stim","single-stim-button","12","38800","0.0-1.11-0.11","columbia-card-task-hot","true","0","21","2303","2303","0","test","1","12","1","10","250","120","false","rigged_win","","","",""
"1095","","pre_stim","single-stim-button","13","39896","0.0-1.12-0.12","columbia-card-task-hot","true","0","20","1095","1095","0","test","1","13","1","10","250","130","false","rigged_win","","","",""
"2416","","pre_stim","single-stim-button","14","42312","0.0-1.13-0.13","columbia-card-task-hot","true","0","19","2416","2416","0","test","1","14","1","10","250","140","false","rigged_win","","","",""
"1031","","pre_stim","single-stim-button","15","43344","0.0-1.14-0.14","columbia-card-task-hot","true","0","18","1031","1031","0","test","1","15","1","10","250","150","false","rigged_win","","","",""
"1143","","pre_stim","single-stim-button","16","44488","0.0-1.15-0.15","columbia-card-task-hot","true","0","17","1143","1143","0","test","1","16","1","10","250","160","false","rigged_win","","","",""
"1975","","pre_stim","single-stim-button","17","46463","0.0-1.16-0.16","columbia-card-task-hot","true","0","25","1975","1975","0","test","1","17","1","10","250","170","false","rigged_win","","","",""
"1367","","pre_stim","single-stim-button","18","47832","0.0-1.17-0.17","columbia-card-task-hot","true","0","26","1367","1367","0","test","1","18","1","10","250","180","false","rigged_win","","","",""
"1535","","pre_stim","single-stim-button","19","49368","0.0-1.18-0.18","columbia-card-task-hot","true","0","27","1535","1535","0","test","1","19","1","10","250","190","false","rigged_win","","","",""
"1471","","pre_stim","single-stim-button","20","50840","0.0-1.19-0.19","columbia-card-task-hot","true","0","28","1471","1471","0","test","1","20","1","10","250","200","false","rigged_win","","","",""
"3535","","pre_stim","single-stim-button","21","54376","0.0-1.20-0.20","columbia-card-task-hot","true","0","32","3535","3535","0","test","1","21","1","10","250","210","false","rigged_win","","","",""
"2791","","pre_stim","single-stim-button","22","57168","0.0-1.21-0.21","columbia-card-task-hot","true","0","8","2791","2791","0","test","1","22","1","10","250","220","false","rigged_win","","","",""
"4679","","pre_stim","single-stim-button","23","61848","0.0-1.22-0.22","columbia-card-task-hot","true","0","7","4679","4679","0","test","1","23","1","10","250","230","false","rigged_win","","","",""
"5398","","pre_stim","single-stim-button","24","67248","0.0-1.23-0.23","columbia-card-task-hot","true","0","6","5398","5398","0","test","1","24","1","10","250","240","false","rigged_win","","","",""
"9655","","pre_stim","single-stim-button","25","76904","0.0-1.24-0.24","columbia-card-task-hot","true","0","5","9655","9655","0","test","1","25","1","10","250","250","false","rigged_win","","","",""
"4999","","pre_stim","single-stim-button","26","81904","0.0-1.25-0.25","columbia-card-task-hot","true","0","turnButton","4999","4999","0","test","1","25","1","10","250","250","false","rigged_win","","","",""
"8287","","pre_stim","single-stim-button","27","90192","0.0-1.26-0.26","columbia-card-task-hot","true","0","collectButton","8287","8287","0","test","1","26","1","10","250","250","false","rigged_win","","","",""
"12568","","pre_stim","single-stim-button","28","102761","0.0-2.0-0.0","columbia-card-task-hot","true","0","32","12568","12568","0","test","2","1","3","30","750","30","false","rigged_win","","","",""
"2768","","pre_stim","single-stim-button","29","105529","0.0-2.1-0.1","columbia-card-task-hot","true","0","31","2768","2768","0","test","2","2","3","30","750","60","false","rigged_win","","","",""
"1502","","pre_stim","single-stim-button","30","107033","0.0-2.2-0.2","columbia-card-task-hot","true","0","30","1502","1502","0","test","2","3","3","30","750","90","false","rigged_win","","","",""
"2591","","pre_stim","single-stim-button","31","109624","0.0-2.3-0.3","columbia-card-task-hot","true","0","22","2591","2591","0","test","2","4","3","30","750","120","false","rigged_win","","","",""
"1415","","pre_stim","single-stim-button","32","111041","0.0-2.4-0.4","columbia-card-task-hot","true","0","23","1415","1415","0","test","2","5","3","30","750","150","false","rigged_win","","","",""
"879","","pre_stim","single-stim-button","33","111921","0.0-2.5-0.5","columbia-card-task-hot","true","0","24","879","879","0","test","2","6","3","30","750","180","false","rigged_win","","","",""
"1935","","pre_stim","single-stim-button","34","113857","0.0-2.6-0.6","columbia-card-task-hot","true","0","14","1935","1935","0","test","2","7","3","30","750","210","false","rigged_win","","","",""
"1335","","pre_stim","single-stim-button","35","115193","0.0-2.7-0.7","columbia-card-task-hot","true","0","15","1335","1335","0","test","2","8","3","30","750","240","false","rigged_win","","","",""
"1240","","pre_stim","single-stim-button","36","116433","0.0-2.8-0.8","columbia-card-task-hot","true","0","16","1240","1240","0","test","2","9","3","30","750","270","false","rigged_win","","","",""
"1862","","pre_stim","single-stim-button","37","118297","0.0-2.9-0.9","columbia-card-task-hot","true","0","8","1862","1862","0","test","2","10","3","30","750","300","false","rigged_win","","","",""
"1303","","pre_stim","single-stim-button","38","119601","0.0-2.10-0.10","columbia-card-task-hot","true","0","7","1303","1303","0","test","2","11","3","30","750","330","false","rigged_win","","","",""
"1071","","pre_stim","single-stim-button","39","120673","0.0-2.11-0.11","columbia-card-task-hot","true","0","6","1071","1071","0","test","2","12","3","30","750","360","false","rigged_win","","","",""
"2119","","pre_stim","single-stim-button","40","122793","0.0-2.12-0.12","columbia-card-task-hot","true","0","5","2119","2119","0","test","2","13","3","30","750","390","false","rigged_win","","","",""
"5182","","pre_stim","single-stim-button","41","127977","0.0-2.13-0.13","columbia-card-task-hot","true","0","13","5182","5182","0","test","2","14","3","30","750","420","false","rigged_win","","","",""
"1735","","pre_stim","single-stim-button","42","129713","0.0-2.14-0.14","columbia-card-task-hot","true","0","21","1735","1735","0","test","2","15","3","30","750","450","false","rigged_win","","","",""
"1343","","pre_stim","single-stim-button","43","131057","0.0-2.15-0.15","columbia-card-task-hot","true","0","29","1343","1343","0","test","2","16","3","30","750","480","false","rigged_win","","","",""
"2079","","pre_stim","single-stim-button","44","133137","0.0-2.16-0.16","columbia-card-task-hot","true","0","1","2079","2079","0","test","2","17","3","30","750","510","false","rigged_win","","","",""
"1199","","pre_stim","single-stim-button","45","134337","0.0-2.17-0.17","columbia-card-task-hot","true","0","turnButton","1199","1199","0","test","2","17","3","30","750","510","false","rigged_win","","","",""
"9638","","pre_stim","single-stim-button","46","143977","0.0-2.18-0.18","columbia-card-task-hot","true","0","collectButton","9638","9638","0","test","2","18","3","30","750","510","false","rigged_win","","","",""
"8385","","pre_stim","single-stim-button","47","152363","0.0-3.0-0.0","columbia-card-task-hot","true","0","1","8385","8385","0","test","3","1","1","30","750","30","false","rigged_loss","","","",""
"1735","","pre_stim","single-stim-button","48","154099","0.0-3.1-0.1","columbia-card-task-hot","true","0","2","1735","1735","0","test","3","2","1","30","750","60","false","rigged_loss","","","",""
"1551","","pre_stim","single-stim-button","49","155650","0.0-3.2-0.2","columbia-card-task-hot","true","0","3","1551","1551","0","test","3","3","1","30","750","90","false","rigged_loss","","","",""
"1286","","pre_stim","single-stim-button","50","156938","0.0-3.3-0.3","columbia-card-task-hot","true","0","4","1286","1286","0","test","3","4","1","30","750","120","false","rigged_loss","","","",""
"1278","","pre_stim","single-stim-button","51","158218","0.0-3.4-0.4","columbia-card-task-hot","true","0","5","1278","1278","0","test","3","5","1","30","750","-630","true","rigged_loss","","","",""
"7207","","pre_stim","single-stim-button","52","165426","0.0-3.5-0.5","columbia-card-task-hot","true","0","collectButton","7207","7207","0","test","3","6","1","30","750","-630","true","rigged_loss","","","",""
"8607","","pre_stim","single-stim-button","53","174034","0.0-4.0-0.0","columbia-card-task-hot","true","0","25","8607","8607","0","test","4","1","1","10","750","10","false","rigged_win","","","",""
"1294","","pre_stim","single-stim-button","54","175330","0.0-4.1-0.1","columbia-card-task-hot","true","0","17","1294","1294","0","test","4","2","1","10","750","20","false","rigged_win","","","",""
"1352","","pre_stim","single-stim-button","55","176683","0.0-4.2-0.2","columbia-card-task-hot","true","0","9","1352","1352","0","test","4","3","1","10","750","30","false","rigged_win","","","",""
"2247","","pre_stim","single-stim-button","56","178931","0.0-4.3-0.3","columbia-card-task-hot","true","0","10","2247","2247","0","test","4","4","1","10","750","40","false","rigged_win","","","",""
"1294","","pre_stim","single-stim-button","57","180226","0.0-4.4-0.4","columbia-card-task-hot","true","0","18","1294","1294","0","test","4","5","1","10","750","50","false","rigged_win","","","",""
"1688","","pre_stim","single-stim-button","58","181915","0.0-4.5-0.5","columbia-card-task-hot","true","0","26","1688","1688","0","test","4","6","1","10","750","60","false","rigged_win","","","",""
"1990","","pre_stim","single-stim-button","59","183906","0.0-4.6-0.6","columbia-card-task-hot","true","0","27","1990","1990","0","test","4","7","1","10","750","70","false","rigged_win","","","",""
"1528","","pre_stim","single-stim-button","60","185434","0.0-4.7-0.7","columbia-card-task-hot","true","0","19","1528","1528","0","test","4","8","1","10","750","80","false","rigged_win","","","",""
"1679","","pre_stim","single-stim-button","61","187114","0.0-4.8-0.8","columbia-card-task-hot","true","0","11","1679","1679","0","test","4","9","1","10","750","90","false","rigged_win","","","",""
"1191","","pre_stim","single-stim-button","62","188306","0.0-4.9-0.9","columbia-card-task-hot","true","0","3","1191","1191","0","test","4","10","1","10","750","100","false","rigged_win","","","",""
"1959","","pre_stim","single-stim-button","63","190266","0.0-4.10-0.10","columbia-card-task-hot","true","0","2","1959","1959","0","test","4","11","1","10","750","110","false","rigged_win","","","",""
"1087","","pre_stim","single-stim-button","64","191355","0.0-4.11-0.11","columbia-card-task-hot","true","0","1","1087","1087","0","test","4","12","1","10","750","120","false","rigged_win","","","",""
"2295","","pre_stim","single-stim-button","65","193650","0.0-4.12-0.12","columbia-card-task-hot","true","0","32","2295","2295","0","test","4","13","1","10","750","130","false","rigged_win","","","",""
"1303","","pre_stim","single-stim-button","66","194954","0.0-4.13-0.13","columbia-card-task-hot","true","0","31","1303","1303","0","test","4","14","1","10","750","140","false","rigged_win","","","",""
"2567","","pre_stim","single-stim-button","67","197522","0.0-4.14-0.14","columbia-card-task-hot","true","0","30","2567","2567","0","test","4","15","1","10","750","150","false","rigged_win","","","",""
"3511","","pre_stim","single-stim-button","68","201034","0.0-4.15-0.15","columbia-card-task-hot","true","0","24","3511","3511","0","test","4","16","1","10","750","160","false","rigged_win","","","",""
"2063","","pre_stim","single-stim-button","69","203098","0.0-4.16-0.16","columbia-card-task-hot","true","0","23","2063","2063","0","test","4","17","1","10","750","170","false","rigged_win","","","",""
"1591","","pre_stim","single-stim-button","70","204690","0.0-4.17-0.17","columbia-card-task-hot","true","0","22","1591","1591","0","test","4","18","1","10","750","180","false","rigged_win","","","",""
"3904","","pre_stim","single-stim-button","71","208595","0.0-4.18-0.18","columbia-card-task-hot","true","0","turnButton","3904","3904","0","test","4","18","1","10","750","180","false","rigged_win","","","",""
"7063","","pre_stim","single-stim-button","72","215660","0.0-4.19-0.19","columbia-card-task-hot","true","0","collectButton","7063","7063","0","test","4","19","1","10","750","180","false","rigged_win","","","",""
"9023","","pre_stim","single-stim-button","73","224684","0.0-5.0-0.0","columbia-card-task-hot","true","0","1","9023","9023","0","test","5","1","1","10","250","10","false","rigged_win","","","",""
"1248","","pre_stim","single-stim-button","74","225932","0.0-5.1-0.1","columbia-card-task-hot","true","0","2","1248","1248","0","test","5","2","1","10","250","20","false","rigged_win","","","",""
"2934","","pre_stim","single-stim-button","75","228868","0.0-5.2-0.2","columbia-card-task-hot","true","0","3","2934","2934","0","test","5","3","1","10","250","30","false","rigged_win","","","",""
"1639","","pre_stim","single-stim-button","76","230508","0.0-5.3-0.3","columbia-card-task-hot","true","0","4","1639","1639","0","test","5","4","1","10","250","40","false","rigged_win","","","",""
"1334","","pre_stim","single-stim-button","77","231844","0.0-5.4-0.4","columbia-card-task-hot","true","0","5","1334","1334","0","test","5","5","1","10","250","50","false","rigged_win","","","",""
"1959","","pre_stim","single-stim-button","78","233804","0.0-5.5-0.5","columbia-card-task-hot","true","0","6","1959","1959","0","test","5","6","1","10","250","60","false","rigged_win","","","",""
"911","","pre_stim","single-stim-button","79","234716","0.0-5.6-0.6","columbia-card-task-hot","true","0","7","911","911","0","test","5","7","1","10","250","70","false","rigged_win","","","",""
"1286","","pre_stim","single-stim-button","80","236004","0.0-5.7-0.7","columbia-card-task-hot","true","0","8","1286","1286","0","test","5","8","1","10","250","80","false","rigged_win","","","",""
"1182","","pre_stim","single-stim-button","81","237188","0.0-5.8-0.8","columbia-card-task-hot","true","0","16","1182","1182","0","test","5","9","1","10","250","90","false","rigged_win","","","",""
"1271","","pre_stim","single-stim-button","82","238460","0.0-5.9-0.9","columbia-card-task-hot","true","0","15","1271","1271","0","test","5","10","1","10","250","100","false","rigged_win","","","",""
"1127","","pre_stim","single-stim-button","83","239588","0.0-5.10-0.10","columbia-card-task-hot","true","0","14","1127","1127","0","test","5","11","1","10","250","110","false","rigged_win","","","",""
"2303","","pre_stim","single-stim-button","84","241892","0.0-5.11-0.11","columbia-card-task-hot","true","0","32","2303","2303","0","test","5","12","1","10","250","120","false","rigged_win","","","",""
"1046","","pre_stim","single-stim-button","85","242940","0.0-5.12-0.12","columbia-card-task-hot","true","0","31","1046","1046","0","test","5","13","1","10","250","130","false","rigged_win","","","",""
"1030","","pre_stim","single-stim-button","86","243971","0.0-5.13-0.13","columbia-card-task-hot","true","0","30","1030","1030","0","test","5","14","1","10","250","140","false","rigged_win","","","",""
"1024","","pre_stim","single-stim-button","87","244996","0.0-5.14-0.14","columbia-card-task-hot","true","0","29","1024","1024","0","test","5","15","1","10","250","150","false","rigged_win","","","",""
"958","","pre_stim","single-stim-button","88","245956","0.0-5.15-0.15","columbia-card-task-hot","true","0","28","958","958","0","test","5","16","1","10","250","160","false","rigged_win","","","",""
"1214","","pre_stim","single-stim-button","89","247172","0.0-5.16-0.16","columbia-card-task-hot","true","0","27","1214","1214","0","test","5","17","1","10","250","170","false","rigged_win","","","",""
"1495","","pre_stim","single-stim-button","90","248668","0.0-5.17-0.17","columbia-card-task-hot","true","0","26","1495","1495","0","test","5","18","1","10","250","180","false","rigged_win","","","",""
"798","","pre_stim","single-stim-button","91","249468","0.0-5.18-0.18","columbia-card-task-hot","true","0","25","798","798","0","test","5","19","1","10","250","190","false","rigged_win","","","",""
"2327","","pre_stim","single-stim-button","92","251796","0.0-5.19-0.19","columbia-card-task-hot","true","0","17","2327","2327","0","test","5","20","1","10","250","200","false","rigged_win","","","",""
"1102","","pre_stim","single-stim-button","93","252900","0.0-5.20-0.20","columbia-card-task-hot","true","0","18","1102","1102","0","test","5","21","1","10","250","210","false","rigged_win","","","",""
"2230","","pre_stim","single-stim-button","94","255132","0.0-5.21-0.21","columbia-card-task-hot","true","0","19","2230","2230","0","test","5","22","1","10","250","220","false","rigged_win","","","",""
"1214","","pre_stim","single-stim-button","95","256348","0.0-5.22-0.22","columbia-card-task-hot","true","0","20","1214","1214","0","test","5","23","1","10","250","230","false","rigged_win","","","",""
"3030","","pre_stim","single-stim-button","96","259380","0.0-5.23-0.23","columbia-card-task-hot","true","0","21","3030","3030","0","test","5","24","1","10","250","240","false","rigged_win","","","",""
"1151","","pre_stim","single-stim-button","97","260532","0.0-5.24-0.24","columbia-card-task-hot","true","0","turnButton","1151","1151","0","test","5","24","1","10","250","240","false","rigged_win","","","",""
"5614","","pre_stim","single-stim-button","98","266148","0.0-5.25-0.25","columbia-card-task-hot","true","0","collectButton","5614","5614","0","test","5","25","1","10","250","240","false","rigged_win","","","",""
"8944","","pre_stim","single-stim-button","99","275094","0.0-6.0-0.0","columbia-card-task-hot","true","0","1","8944","8944","0","test","6","1","1","30","250","30","false","rigged_loss","","","",""
"1175","","pre_stim","single-stim-button","100","276269","0.0-6.1-0.1","columbia-card-task-hot","true","0","2","1175","1175","0","test","6","2","1","30","250","60","false","rigged_loss","","","",""
"2079","","pre_stim","single-stim-button","101","278349","0.0-6.2-0.2","columbia-card-task-hot","true","0","3","2079","2079","0","test","6","3","1","30","250","90","false","rigged_loss","","","",""
"967","","pre_stim","single-stim-button","102","279317","0.0-6.3-0.3","columbia-card-task-hot","true","0","4","967","967","0","test","6","4","1","30","250","120","false","rigged_loss","","","",""
"991","","pre_stim","single-stim-button","103","280309","0.0-6.4-0.4","columbia-card-task-hot","true","0","5","991","991","0","test","6","5","1","30","250","150","false","rigged_loss","","","",""
"942","","pre_stim","single-stim-button","104","281253","0.0-6.5-0.5","columbia-card-task-hot","true","0","6","942","942","0","test","6","6","1","30","250","180","false","rigged_loss","","","",""
"1055","","pre_stim","single-stim-button","105","282310","0.0-6.6-0.6","columbia-card-task-hot","true","0","7","1055","1055","0","test","6","7","1","30","250","210","false","rigged_loss","","","",""
"1255","","pre_stim","single-stim-button","106","283566","0.0-6.7-0.7","columbia-card-task-hot","true","0","8","1255","1255","0","test","6","8","1","30","250","-40","true","rigged_loss","","","",""
"5710","","pre_stim","single-stim-button","107","289277","0.0-6.8-0.8","columbia-card-task-hot","true","0","collectButton","5710","5710","0","test","6","9","1","30","250","-40","true","rigged_loss","","","",""
"8679","","pre_stim","single-stim-button","108","297958","0.0-7.0-0.0","columbia-card-task-hot","true","0","25","8679","8679","0","test","7","1","1","30","250","30","false","rigged_loss","","","",""
"1007","","pre_stim","single-stim-button","109","298965","0.0-7.1-0.1","columbia-card-task-hot","true","0","18","1007","1007","0","test","7","2","1","30","250","60","false","rigged_loss","","","",""
"1063","","pre_stim","single-stim-button","110","300029","0.0-7.2-0.2","columbia-card-task-hot","true","0","11","1063","1063","0","test","7","3","1","30","250","90","false","rigged_loss","","","",""
"2039","","pre_stim","single-stim-button","111","302069","0.0-7.3-0.3","columbia-card-task-hot","true","0","4","2039","2039","0","test","7","4","1","30","250","120","false","rigged_loss","","","",""
"1423","","pre_stim","single-stim-button","112","303494","0.0-7.4-0.4","columbia-card-task-hot","true","0","13","1423","1423","0","test","7","5","1","30","250","150","false","rigged_loss","","","",""
"1518","","pre_stim","single-stim-button","113","305013","0.0-7.5-0.5","columbia-card-task-hot","true","0","22","1518","1518","0","test","7","6","1","30","250","-100","true","rigged_loss","","","",""
"4391","","pre_stim","single-stim-button","114","309405","0.0-7.6-0.6","columbia-card-task-hot","true","0","collectButton","4391","4391","0","test","7","7","1","30","250","-100","true","rigged_loss","","","",""
"9351","","pre_stim","single-stim-button","115","318758","0.0-8.0-0.0","columbia-card-task-hot","true","0","25","9351","9351","0","test","8","1","1","10","750","10","false","rigged_loss","","","",""
"1742","","pre_stim","single-stim-button","116","320501","0.0-8.1-0.1","columbia-card-task-hot","true","0","18","1742","1742","0","test","8","2","1","10","750","20","false","rigged_loss","","","",""
"991","","pre_stim","single-stim-button","117","321493","0.0-8.2-0.2","columbia-card-task-hot","true","0","11","991","991","0","test","8","3","1","10","750","-730","true","rigged_loss","","","",""
"2911","","pre_stim","single-stim-button","118","324405","0.0-8.3-0.3","columbia-card-task-hot","true","0","collectButton","2911","2911","0","test","8","4","1","10","750","-730","true","rigged_loss","","","",""
"7039","","pre_stim","single-stim-button","119","331445","0.0-9.0-0.0","columbia-card-task-hot","true","0","8","7039","7039","0","test","9","1","3","10","250","10","false","rigged_win","","","",""
"975","","pre_stim","single-stim-button","120","332421","0.0-9.1-0.1","columbia-card-task-hot","true","0","7","975","975","0","test","9","2","3","10","250","20","false","rigged_win","","","",""
"1312","","pre_stim","single-stim-button","121","333734","0.0-9.2-0.2","columbia-card-task-hot","true","0","15","1312","1312","0","test","9","3","3","10","250","30","false","rigged_win","","","",""
"975","","pre_stim","single-stim-button","122","334710","0.0-9.3-0.3","columbia-card-task-hot","true","0","16","975","975","0","test","9","4","3","10","250","40","false","rigged_win","","","",""
"1086","","pre_stim","single-stim-button","123","335798","0.0-9.4-0.4","columbia-card-task-hot","true","0","24","1086","1086","0","test","9","5","3","10","250","50","false","rigged_win","","","",""
"887","","pre_stim","single-stim-button","124","336687","0.0-9.5-0.5","columbia-card-task-hot","true","0","23","887","887","0","test","9","6","3","10","250","60","false","rigged_win","","","",""
"1022","","pre_stim","single-stim-button","125","337710","0.0-9.6-0.6","columbia-card-task-hot","true","0","31","1022","1022","0","test","9","7","3","10","250","70","false","rigged_win","","","",""
"903","","pre_stim","single-stim-button","126","338614","0.0-9.7-0.7","columbia-card-task-hot","true","0","32","903","903","0","test","9","8","3","10","250","80","false","rigged_win","","","",""
"1471","","pre_stim","single-stim-button","127","340086","0.0-9.8-0.8","columbia-card-task-hot","true","0","6","1471","1471","0","test","9","9","3","10","250","90","false","rigged_win","","","",""
"1127","","pre_stim","single-stim-button","128","341214","0.0-9.9-0.9","columbia-card-task-hot","true","0","14","1127","1127","0","test","9","10","3","10","250","100","false","rigged_win","","","",""
"1199","","pre_stim","single-stim-button","129","342414","0.0-9.10-0.10","columbia-card-task-hot","true","0","22","1199","1199","0","test","9","11","3","10","250","110","false","rigged_win","","","",""
"1135","","pre_stim","single-stim-button","130","343550","0.0-9.11-0.11","columbia-card-task-hot","true","0","30","1135","1135","0","test","9","12","3","10","250","120","false","rigged_win","","","",""
"2727","","pre_stim","single-stim-button","131","346278","0.0-9.12-0.12","columbia-card-task-hot","true","0","1","2727","2727","0","test","9","13","3","10","250","130","false","rigged_win","","","",""
"983","","pre_stim","single-stim-button","132","347262","0.0-9.13-0.13","columbia-card-task-hot","true","0","2","983","983","0","test","9","14","3","10","250","140","false","rigged_win","","","",""
"719","","pre_stim","single-stim-button","133","347982","0.0-9.14-0.14","columbia-card-task-hot","true","0","3","719","719","0","test","9","15","3","10","250","150","false","rigged_win","","","",""
"767","","pre_stim","single-stim-button","134","348750","0.0-9.15-0.15","columbia-card-task-hot","true","0","4","767","767","0","test","9","16","3","10","250","160","false","rigged_win","","","",""
"1887","","pre_stim","single-stim-button","135","350638","0.0-9.16-0.16","columbia-card-task-hot","true","0","5","1887","1887","0","test","9","17","3","10","250","170","false","rigged_win","","","",""
"1735","","pre_stim","single-stim-button","136","352374","0.0-9.17-0.17","columbia-card-task-hot","true","0","13","1735","1735","0","test","9","18","3","10","250","180","false","rigged_win","","","",""
"863","","pre_stim","single-stim-button","137","353238","0.0-9.18-0.18","columbia-card-task-hot","true","0","12","863","863","0","test","9","19","3","10","250","190","false","rigged_win","","","",""
"1239","","pre_stim","single-stim-button","138","354478","0.0-9.19-0.19","columbia-card-task-hot","true","0","11","1239","1239","0","test","9","20","3","10","250","200","false","rigged_win","","","",""
"1239","","pre_stim","single-stim-button","139","355718","0.0-9.20-0.20","columbia-card-task-hot","true","0","10","1239","1239","0","test","9","21","3","10","250","210","false","rigged_win","","","",""
"3295","","pre_stim","single-stim-button","140","359014","0.0-9.21-0.21","columbia-card-task-hot","true","0","turnButton","3295","3295","0","test","9","21","3","10","250","210","false","rigged_win","","","",""
"7383","","pre_stim","single-stim-button","141","366398","0.0-9.22-0.22","columbia-card-task-hot","true","0","collectButton","7383","7383","0","test","9","22","3","10","250","210","false","rigged_win","","","",""
"7863","","pre_stim","single-stim-button","142","374263","0.0-10.0-0.0","columbia-card-task-hot","true","0","9","7863","7863","0","test","10","1","1","30","750","30","false","rigged_win","","","",""
"1135","","pre_stim","single-stim-button","143","375399","0.0-10.1-0.1","columbia-card-task-hot","true","0","10","1135","1135","0","test","10","2","1","30","750","60","false","rigged_win","","","",""
"775","","pre_stim","single-stim-button","144","376175","0.0-10.2-0.2","columbia-card-task-hot","true","0","11","775","775","0","test","10","3","1","30","750","90","false","rigged_win","","","",""
"774","","pre_stim","single-stim-button","145","376951","0.0-10.3-0.3","columbia-card-task-hot","true","0","12","774","774","0","test","10","4","1","30","750","120","false","rigged_win","","","",""
"895","","pre_stim","single-stim-button","146","377846","0.0-10.4-0.4","columbia-card-task-hot","true","0","13","895","895","0","test","10","5","1","30","750","150","false","rigged_win","","","",""
"718","","pre_stim","single-stim-button","147","378566","0.0-10.5-0.5","columbia-card-task-hot","true","0","14","718","718","0","test","10","6","1","30","750","180","false","rigged_win","","","",""
"711","","pre_stim","single-stim-button","148","379278","0.0-10.6-0.6","columbia-card-task-hot","true","0","15","711","711","0","test","10","7","1","30","750","210","false","rigged_win","","","",""
"646","","pre_stim","single-stim-button","149","379926","0.0-10.7-0.7","columbia-card-task-hot","true","0","16","646","646","0","test","10","8","1","30","750","240","false","rigged_win","","","",""
"1799","","pre_stim","single-stim-button","150","381727","0.0-10.8-0.8","columbia-card-task-hot","true","0","8","1799","1799","0","test","10","9","1","30","750","270","false","rigged_win","","","",""
"959","","pre_stim","single-stim-button","151","382687","0.0-10.9-0.9","columbia-card-task-hot","true","0","7","959","959","0","test","10","10","1","30","750","300","false","rigged_win","","","",""
"975","","pre_stim","single-stim-button","152","383662","0.0-10.10-0.10","columbia-card-task-hot","true","0","6","975","975","0","test","10","11","1","30","750","330","false","rigged_win","","","",""
"1943","","pre_stim","single-stim-button","153","385607","0.0-10.11-0.11","columbia-card-task-hot","true","0","5","1943","1943","0","test","10","12","1","30","750","360","false","rigged_win","","","",""
"998","","pre_stim","single-stim-button","154","386607","0.0-10.12-0.12","columbia-card-task-hot","true","0","4","998","998","0","test","10","13","1","30","750","390","false","rigged_win","","","",""
"3343","","pre_stim","single-stim-button","155","389950","0.0-10.13-0.13","columbia-card-task-hot","true","0","28","3343","3343","0","test","10","14","1","30","750","420","false","rigged_win","","","",""
"974","","pre_stim","single-stim-button","156","390926","0.0-10.14-0.14","columbia-card-task-hot","true","0","29","974","974","0","test","10","15","1","30","750","450","false","rigged_win","","","",""
"782","","pre_stim","single-stim-button","157","391711","0.0-10.15-0.15","columbia-card-task-hot","true","0","30","782","782","0","test","10","16","1","30","750","480","false","rigged_win","","","",""
"759","","pre_stim","single-stim-button","158","392471","0.0-10.16-0.16","columbia-card-task-hot","true","0","31","759","759","0","test","10","17","1","30","750","510","false","rigged_win","","","",""
"702","","pre_stim","single-stim-button","159","393174","0.0-10.17-0.17","columbia-card-task-hot","true","0","32","702","702","0","test","10","18","1","30","750","540","false","rigged_win","","","",""
"903","","pre_stim","single-stim-button","160","394079","0.0-10.18-0.18","columbia-card-task-hot","true","0","24","903","903","0","test","10","19","1","30","750","570","false","rigged_win","","","",""
"815","","pre_stim","single-stim-button","161","394896","0.0-10.19-0.19","columbia-card-task-hot","true","0","23","815","815","0","test","10","20","1","30","750","600","false","rigged_win","","","",""
"894","","pre_stim","single-stim-button","162","395792","0.0-10.20-0.20","columbia-card-task-hot","true","0","22","894","894","0","test","10","21","1","30","750","630","false","rigged_win","","","",""
"934","","pre_stim","single-stim-button","163","396728","0.0-10.21-0.21","columbia-card-task-hot","true","0","21","934","934","0","test","10","22","1","30","750","660","false","rigged_win","","","",""
"1662","","pre_stim","single-stim-button","164","398392","0.0-10.22-0.22","columbia-card-task-hot","true","0","20","1662","1662","0","test","10","23","1","30","750","690","false","rigged_win","","","",""
"3798","","pre_stim","single-stim-button","165","402192","0.0-10.23-0.23","columbia-card-task-hot","true","0","turnButton","3798","3798","0","test","10","23","1","30","750","690","false","rigged_win","","","",""
"5878","","pre_stim","single-stim-button","166","408072","0.0-10.24-0.24","columbia-card-task-hot","true","0","collectButton","5878","5878","0","test","10","24","1","30","750","690","false","rigged_win","","","",""
"7327","","pre_stim","single-stim-button","167","415400","0.0-11.0-0.0","columbia-card-task-hot","true","0","25","7327","7327","0","test","11","1","1","30","250","30","false","rigged_win","","","",""
"991","","pre_stim","single-stim-button","168","416392","0.0-11.1-0.1","columbia-card-task-hot","true","0","26","991","991","0","test","11","2","1","30","250","60","false","rigged_win","","","",""
"679","","pre_stim","single-stim-button","169","417072","0.0-11.2-0.2","columbia-card-task-hot","true","0","27","679","679","0","test","11","3","1","30","250","90","false","rigged_win","","","",""
"509","","pre_stim","single-stim-button","170","417584","0.0-11.3-0.3","columbia-card-task-hot","true","0","28","509","509","0","test","11","4","1","30","250","120","false","rigged_win","","","",""
"566","","pre_stim","single-stim-button","171","418152","0.0-11.4-0.4","columbia-card-task-hot","true","0","29","566","566","0","test","11","5","1","30","250","150","false","rigged_win","","","",""
"518","","pre_stim","single-stim-button","172","418672","0.0-11.5-0.5","columbia-card-task-hot","true","0","30","518","518","0","test","11","6","1","30","250","180","false","rigged_win","","","",""
"902","","pre_stim","single-stim-button","173","419576","0.0-11.6-0.6","columbia-card-task-hot","true","0","31","902","902","0","test","11","7","1","30","250","210","false","rigged_win","","","",""
"734","","pre_stim","single-stim-button","174","420312","0.0-11.7-0.7","columbia-card-task-hot","true","0","32","734","734","0","test","11","8","1","30","250","240","false","rigged_win","","","",""
"974","","pre_stim","single-stim-button","175","421288","0.0-11.8-0.8","columbia-card-task-hot","true","0","24","974","974","0","test","11","9","1","30","250","270","false","rigged_win","","","",""
"895","","pre_stim","single-stim-button","176","422184","0.0-11.9-0.9","columbia-card-task-hot","true","0","23","895","895","0","test","11","10","1","30","250","300","false","rigged_win","","","",""
"846","","pre_stim","single-stim-button","177","423032","0.0-11.10-0.10","columbia-card-task-hot","true","0","22","846","846","0","test","11","11","1","30","250","330","false","rigged_win","","","",""
"814","","pre_stim","single-stim-button","178","423848","0.0-11.11-0.11","columbia-card-task-hot","true","0","21","814","814","0","test","11","12","1","30","250","360","false","rigged_win","","","",""
"750","","pre_stim","single-stim-button","179","424600","0.0-11.12-0.12","columbia-card-task-hot","true","0","20","750","750","0","test","11","13","1","30","250","390","false","rigged_win","","","",""
"646","","pre_stim","single-stim-button","180","425248","0.0-11.13-0.13","columbia-card-task-hot","true","0","19","646","646","0","test","11","14","1","30","250","420","false","rigged_win","","","",""
"734","","pre_stim","single-stim-button","181","425984","0.0-11.14-0.14","columbia-card-task-hot","true","0","18","734","734","0","test","11","15","1","30","250","450","false","rigged_win","","","",""
"1918","","pre_stim","single-stim-button","182","427904","0.0-11.15-0.15","columbia-card-task-hot","true","0","17","1918","1918","0","test","11","16","1","30","250","480","false","rigged_win","","","",""
"1422","","pre_stim","single-stim-button","183","429328","0.0-11.16-0.16","columbia-card-task-hot","true","0","1","1422","1422","0","test","11","17","1","30","250","510","false","rigged_win","","","",""
"1678","","pre_stim","single-stim-button","184","431008","0.0-11.17-0.17","columbia-card-task-hot","true","0","9","1678","1678","0","test","11","18","1","30","250","540","false","rigged_win","","","",""
"679","","pre_stim","single-stim-button","185","431688","0.0-11.18-0.18","columbia-card-task-hot","true","0","10","679","679","0","test","11","19","1","30","250","570","false","rigged_win","","","",""
"766","","pre_stim","single-stim-button","186","432456","0.0-11.19-0.19","columbia-card-task-hot","true","0","11","766","766","0","test","11","20","1","30","250","600","false","rigged_win","","","",""
"1221","","pre_stim","single-stim-button","187","433680","0.0-11.20-0.20","columbia-card-task-hot","true","0","12","1221","1221","0","test","11","21","1","30","250","630","false","rigged_win","","","",""
"2494","","pre_stim","single-stim-button","188","436176","0.0-11.21-0.21","columbia-card-task-hot","true","0","5","2494","2494","0","test","11","22","1","30","250","660","false","rigged_win","","","",""
"1278","","pre_stim","single-stim-button","189","437456","0.0-11.22-0.22","columbia-card-task-hot","true","0","4","1278","1278","0","test","11","23","1","30","250","690","false","rigged_win","","","",""
"830","","pre_stim","single-stim-button","190","438288","0.0-11.23-0.23","columbia-card-task-hot","true","0","3","830","830","0","test","11","24","1","30","250","720","false","rigged_win","","","",""
"1470","","pre_stim","single-stim-button","191","439760","0.0-11.24-0.24","columbia-card-task-hot","true","0","2","1470","1470","0","test","11","25","1","30","250","750","false","rigged_win","","","",""
"5374","","pre_stim","single-stim-button","192","445136","0.0-11.25-0.25","columbia-card-task-hot","true","0","turnButton","5374","5374","0","test","11","25","1","30","250","750","false","rigged_win","","","",""
"7423","","pre_stim","single-stim-button","193","452561","0.0-11.26-0.26","columbia-card-task-hot","true","0","collectButton","7423","7423","0","test","11","26","1","30","250","750","false","rigged_win","","","",""
"8343","","pre_stim","single-stim-button","194","460905","0.0-12.0-0.0","columbia-card-task-hot","true","0","1","8343","8343","0","test","12","1","3","30","250","30","false","rigged_win","","","",""
"1374","","pre_stim","single-stim-button","195","462281","0.0-12.1-0.1","columbia-card-task-hot","true","0","9","1374","1374","0","test","12","2","3","30","250","60","false","rigged_win","","","",""
"815","","pre_stim","single-stim-button","196","463097","0.0-12.2-0.2","columbia-card-task-hot","true","0","17","815","815","0","test","12","3","3","30","250","90","false","rigged_win","","","",""
"638","","pre_stim","single-stim-button","197","463736","0.0-12.3-0.3","columbia-card-task-hot","true","0","25","638","638","0","test","12","4","3","30","250","120","false","rigged_win","","","",""
"630","","pre_stim","single-stim-button","198","464368","0.0-12.4-0.4","columbia-card-task-hot","true","0","26","630","630","0","test","12","5","3","30","250","150","false","rigged_win","","","",""
"646","","pre_stim","single-stim-button","199","465017","0.0-12.5-0.5","columbia-card-task-hot","true","0","18","646","646","0","test","12","6","3","30","250","180","false","rigged_win","","","",""
"710","","pre_stim","single-stim-button","200","465728","0.0-12.6-0.6","columbia-card-task-hot","true","0","10","710","710","0","test","12","7","3","30","250","210","false","rigged_win","","","",""
"950","","pre_stim","single-stim-button","201","466681","0.0-12.7-0.7","columbia-card-task-hot","true","0","2","950","950","0","test","12","8","3","30","250","240","false","rigged_win","","","",""
"734","","pre_stim","single-stim-button","202","467417","0.0-12.8-0.8","columbia-card-task-hot","true","0","3","734","734","0","test","12","9","3","30","250","270","false","rigged_win","","","",""
"806","","pre_stim","single-stim-button","203","468225","0.0-12.9-0.9","columbia-card-task-hot","true","0","11","806","806","0","test","12","10","3","30","250","300","false","rigged_win","","","",""
"726","","pre_stim","single-stim-button","204","468953","0.0-12.10-0.10","columbia-card-task-hot","true","0","19","726","726","0","test","12","11","3","30","250","330","false","rigged_win","","","",""
"661","","pre_stim","single-stim-button","205","469616","0.0-12.11-0.11","columbia-card-task-hot","true","0","27","661","661","0","test","12","12","3","30","250","360","false","rigged_win","","","",""
"1799","","pre_stim","single-stim-button","206","471416","0.0-12.12-0.12","columbia-card-task-hot","true","0","4","1799","1799","0","test","12","13","3","30","250","390","false","rigged_win","","","",""
"1830","","pre_stim","single-stim-button","207","473249","0.0-12.13-0.13","columbia-card-task-hot","true","0","5","1830","1830","0","test","12","14","3","30","250","420","false","rigged_win","","","",""
"1078","","pre_stim","single-stim-button","208","474329","0.0-12.14-0.14","columbia-card-task-hot","true","0","13","1078","1078","0","test","12","15","3","30","250","450","false","rigged_win","","","",""
"1006","","pre_stim","single-stim-button","209","475337","0.0-12.15-0.15","columbia-card-task-hot","true","0","12","1006","1006","0","test","12","16","3","30","250","480","false","rigged_win","","","",""
"630","","pre_stim","single-stim-button","210","475969","0.0-12.16-0.16","columbia-card-task-hot","true","0","20","630","630","0","test","12","17","3","30","250","510","false","rigged_win","","","",""
"1150","","pre_stim","single-stim-button","211","477121","0.0-12.17-0.17","columbia-card-task-hot","true","0","21","1150","1150","0","test","12","18","3","30","250","540","false","rigged_win","","","",""
"3182","","pre_stim","single-stim-button","212","480305","0.0-12.18-0.18","columbia-card-task-hot","true","0","29","3182","3182","0","test","12","19","3","30","250","570","false","rigged_win","","","",""
"1878","","pre_stim","single-stim-button","213","482185","0.0-12.19-0.19","columbia-card-task-hot","true","0","32","1878","1878","0","test","12","20","3","30","250","600","false","rigged_win","","","",""
"966","","pre_stim","single-stim-button","214","483153","0.0-12.20-0.20","columbia-card-task-hot","true","0","31","966","966","0","test","12","21","3","30","250","630","false","rigged_win","","","",""
"903","","pre_stim","single-stim-button","215","484057","0.0-12.21-0.21","columbia-card-task-hot","true","0","24","903","903","0","test","12","22","3","30","250","660","false","rigged_win","","","",""
"910","","pre_stim","single-stim-button","216","484969","0.0-12.22-0.22","columbia-card-task-hot","true","0","23","910","910","0","test","12","23","3","30","250","690","false","rigged_win","","","",""
"2806","","pre_stim","single-stim-button","217","487777","0.0-12.23-0.23","columbia-card-task-hot","true","0","turnButton","2806","2806","0","test","12","23","3","30","250","690","false","rigged_win","","","",""
"4813","","pre_stim","single-stim-button","218","492593","0.0-12.24-0.24","columbia-card-task-hot","true","0","collectButton","4813","4813","0","test","12","24","3","30","250","690","false","rigged_win","","","",""
"9143","","pre_stim","single-stim-button","219","501737","0.0-13.0-0.0","columbia-card-task-hot","true","0","19","9143","9143","0","test","13","1","3","10","750","10","false","rigged_win","","","",""
"829","","pre_stim","single-stim-button","220","502569","0.0-13.1-0.1","columbia-card-task-hot","true","0","18","829","829","0","test","13","2","3","10","750","20","false","rigged_win","","","",""
"838","","pre_stim","single-stim-button","221","503409","0.0-13.2-0.2","columbia-card-task-hot","true","0","17","838","838","0","test","13","3","3","10","750","30","false","rigged_win","","","",""
"1102","","pre_stim","single-stim-button","222","504513","0.0-13.3-0.3","columbia-card-task-hot","true","0","25","1102","1102","0","test","13","4","3","10","750","40","false","rigged_win","","","",""
"742","","pre_stim","single-stim-button","223","505257","0.0-13.4-0.4","columbia-card-task-hot","true","0","26","742","742","0","test","13","5","3","10","750","50","false","rigged_win","","","",""
"599","","pre_stim","single-stim-button","224","505857","0.0-13.5-0.5","columbia-card-task-hot","true","0","27","599","599","0","test","13","6","3","10","750","60","false","rigged_win","","","",""
"631","","pre_stim","single-stim-button","225","506489","0.0-13.6-0.6","columbia-card-task-hot","true","0","28","631","631","0","test","13","7","3","10","750","70","false","rigged_win","","","",""
"910","","pre_stim","single-stim-button","226","507401","0.0-13.7-0.7","columbia-card-task-hot","true","0","20","910","910","0","test","13","8","3","10","750","80","false","rigged_win","","","",""
"1246","","pre_stim","single-stim-button","227","508649","0.0-13.8-0.8","columbia-card-task-hot","true","0","12","1246","1246","0","test","13","9","3","10","750","90","false","rigged_win","","","",""
"886","","pre_stim","single-stim-button","228","509537","0.0-13.9-0.9","columbia-card-task-hot","true","0","11","886","886","0","test","13","10","3","10","750","100","false","rigged_win","","","",""
"806","","pre_stim","single-stim-button","229","510345","0.0-13.10-0.10","columbia-card-task-hot","true","0","10","806","806","0","test","13","11","3","10","750","110","false","rigged_win","","","",""
"710","","pre_stim","single-stim-button","230","511057","0.0-13.11-0.11","columbia-card-task-hot","true","0","9","710","710","0","test","13","12","3","10","750","120","false","rigged_win","","","",""
"838","","pre_stim","single-stim-button","231","511897","0.0-13.12-0.12","columbia-card-task-hot","true","0","1","838","838","0","test","13","13","3","10","750","130","false","rigged_win","","","",""
"734","","pre_stim","single-stim-button","232","512633","0.0-13.13-0.13","columbia-card-task-hot","true","0","2","734","734","0","test","13","14","3","10","750","140","false","rigged_win","","","",""
"742","","pre_stim","single-stim-button","233","513377","0.0-13.14-0.14","columbia-card-task-hot","true","0","3","742","742","0","test","13","15","3","10","750","150","false","rigged_win","","","",""
"927","","pre_stim","single-stim-button","234","514306","0.0-13.15-0.15","columbia-card-task-hot","true","0","4","927","927","0","test","13","16","3","10","750","160","false","rigged_win","","","",""
"2334","","pre_stim","single-stim-button","235","516642","0.0-13.16-0.16","columbia-card-task-hot","true","0","5","2334","2334","0","test","13","17","3","10","750","170","false","rigged_win","","","",""
"687","","pre_stim","single-stim-button","236","517331","0.0-13.17-0.17","columbia-card-task-hot","true","0","13","687","687","0","test","13","18","3","10","750","180","false","rigged_win","","","",""
"750","","pre_stim","single-stim-button","237","518082","0.0-13.18-0.18","columbia-card-task-hot","true","0","21","750","750","0","test","13","19","3","10","750","190","false","rigged_win","","","",""
"830","","pre_stim","single-stim-button","238","518915","0.0-13.19-0.19","columbia-card-task-hot","true","0","29","830","830","0","test","13","20","3","10","750","200","false","rigged_win","","","",""
"2190","","pre_stim","single-stim-button","239","521106","0.0-13.20-0.20","columbia-card-task-hot","true","0","30","2190","2190","0","test","13","21","3","10","750","210","false","rigged_win","","","",""
"2254","","pre_stim","single-stim-button","240","523362","0.0-13.21-0.21","columbia-card-task-hot","true","0","turnButton","2254","2254","0","test","13","21","3","10","750","210","false","rigged_win","","","",""
"4566","","pre_stim","single-stim-button","241","527931","0.0-13.22-0.22","columbia-card-task-hot","true","0","collectButton","4566","4566","0","test","13","22","3","10","750","210","false","rigged_win","","","",""
"7158","","pre_stim","single-stim-button","242","535091","0.0-14.0-0.0","columbia-card-task-hot","true","0","1","7158","7158","0","test","14","1","3","30","250","30","false","rigged_loss","","","",""
"822","","pre_stim","single-stim-button","243","535914","0.0-14.1-0.1","columbia-card-task-hot","true","0","2","822","822","0","test","14","2","3","30","250","60","false","rigged_loss","","","",""
"742","","pre_stim","single-stim-button","244","536659","0.0-14.2-0.2","columbia-card-task-hot","true","0","3","742","742","0","test","14","3","3","30","250","90","false","rigged_loss","","","",""
"574","","pre_stim","single-stim-button","245","537234","0.0-14.3-0.3","columbia-card-task-hot","true","0","4","574","574","0","test","14","4","3","30","250","120","false","rigged_loss","","","",""
"1143","","pre_stim","single-stim-button","246","538379","0.0-14.4-0.4","columbia-card-task-hot","true","0","5","1143","1143","0","test","14","5","3","30","250","150","false","rigged_loss","","","",""
"846","","pre_stim","single-stim-button","247","539227","0.0-14.5-0.5","columbia-card-task-hot","true","0","6","846","846","0","test","14","6","3","30","250","180","false","rigged_loss","","","",""
"1326","","pre_stim","single-stim-button","248","540555","0.0-14.6-0.6","columbia-card-task-hot","true","0","7","1326","1326","0","test","14","7","3","30","250","210","false","rigged_loss","","","",""
"886","","pre_stim","single-stim-button","249","541443","0.0-14.7-0.7","columbia-card-task-hot","true","0","8","886","886","0","test","14","8","3","30","250","240","false","rigged_loss","","","",""
"918","","pre_stim","single-stim-button","250","542363","0.0-14.8-0.8","columbia-card-task-hot","true","0","16","918","918","0","test","14","9","3","30","250","270","false","rigged_loss","","","",""
"902","","pre_stim","single-stim-button","251","543267","0.0-14.9-0.9","columbia-card-task-hot","true","0","15","902","902","0","test","14","10","3","30","250","20","true","rigged_loss","","","",""
"4614","","pre_stim","single-stim-button","252","547883","0.0-14.10-0.10","columbia-card-task-hot","true","0","collectButton","4614","4614","0","test","14","11","3","30","250","20","true","rigged_loss","","","",""
"7790","","pre_stim","single-stim-button","253","555675","0.0-15.0-0.0","columbia-card-task-hot","true","0","25","7790","7790","0","test","15","1","1","10","750","10","false","rigged_loss","","","",""
"966","","pre_stim","single-stim-button","254","556643","0.0-15.1-0.1","columbia-card-task-hot","true","0","17","966","966","0","test","15","2","1","10","750","-740","true","rigged_loss","","","",""
"2774","","pre_stim","single-stim-button","255","559418","0.0-15.2-0.2","columbia-card-task-hot","true","0","collectButton","2774","2774","0","test","15","3","1","10","750","-740","true","rigged_loss","","","",""
"10543","","pre_stim","single-stim-button","256","569963","0.0-16.0-0.0","columbia-card-task-hot","true","0","25","10543","10543","0","test","16","1","1","30","250","30","false","rigged_win","","","",""
"982","","pre_stim","single-stim-button","257","570947","0.0-16.1-0.1","columbia-card-task-hot","true","0","17","982","982","0","test","16","2","1","30","250","60","false","rigged_win","","","",""
"830","","pre_stim","single-stim-button","258","571779","0.0-16.2-0.2","columbia-card-task-hot","true","0","9","830","830","0","test","16","3","1","30","250","90","false","rigged_win","","","",""
"1342","","pre_stim","single-stim-button","259","573122","0.0-16.3-0.3","columbia-card-task-hot","true","0","1","1342","1342","0","test","16","4","1","30","250","120","false","rigged_win","","","",""
"639","","pre_stim","single-stim-button","260","573763","0.0-16.4-0.4","columbia-card-task-hot","true","0","2","639","639","0","test","16","5","1","30","250","150","false","rigged_win","","","",""
"653","","pre_stim","single-stim-button","261","574418","0.0-16.5-0.5","columbia-card-task-hot","true","0","10","653","653","0","test","16","6","1","30","250","180","false","rigged_win","","","",""
"871","","pre_stim","single-stim-button","262","575291","0.0-16.6-0.6","columbia-card-task-hot","true","0","18","871","871","0","test","16","7","1","30","250","210","false","rigged_win","","","",""
"774","","pre_stim","single-stim-button","263","576067","0.0-16.7-0.7","columbia-card-task-hot","true","0","26","774","774","0","test","16","8","1","30","250","240","false","rigged_win","","","",""
"686","","pre_stim","single-stim-button","264","576755","0.0-16.8-0.8","columbia-card-task-hot","true","0","27","686","686","0","test","16","9","1","30","250","270","false","rigged_win","","","",""
"831","","pre_stim","single-stim-button","265","577587","0.0-16.9-0.9","columbia-card-task-hot","true","0","19","831","831","0","test","16","10","1","30","250","300","false","rigged_win","","","",""
"790","","pre_stim","single-stim-button","266","578379","0.0-16.10-0.10","columbia-card-task-hot","true","0","11","790","790","0","test","16","11","1","30","250","330","false","rigged_win","","","",""
"749","","pre_stim","single-stim-button","267","579131","0.0-16.11-0.11","columbia-card-task-hot","true","0","3","749","749","0","test","16","12","1","30","250","360","false","rigged_win","","","",""
"1822","","pre_stim","single-stim-button","268","580955","0.0-16.12-0.12","columbia-card-task-hot","true","0","28","1822","1822","0","test","16","13","1","30","250","390","false","rigged_win","","","",""
"950","","pre_stim","single-stim-button","269","581907","0.0-16.13-0.13","columbia-card-task-hot","true","0","20","950","950","0","test","16","14","1","30","250","420","false","rigged_win","","","",""
"1230","","pre_stim","single-stim-button","270","583139","0.0-16.14-0.14","columbia-card-task-hot","true","0","12","1230","1230","0","test","16","15","1","30","250","450","false","rigged_win","","","",""
"1373","","pre_stim","single-stim-button","271","584515","0.0-16.15-0.15","columbia-card-task-hot","true","0","4","1373","1373","0","test","16","16","1","30","250","480","false","rigged_win","","","",""
"2686","","pre_stim","single-stim-button","272","587204","0.0-16.16-0.16","columbia-card-task-hot","true","0","32","2686","2686","0","test","16","17","1","30","250","510","false","rigged_win","","","",""
"1822","","pre_stim","single-stim-button","273","589027","0.0-16.17-0.17","columbia-card-task-hot","true","0","24","1822","1822","0","test","16","18","1","30","250","540","false","rigged_win","","","",""
"2551","","pre_stim","single-stim-button","274","591579","0.0-16.18-0.18","columbia-card-task-hot","true","0","16","2551","2551","0","test","16","19","1","30","250","570","false","rigged_win","","","",""
"3046","","pre_stim","single-stim-button","275","594628","0.0-16.19-0.19","columbia-card-task-hot","true","0","8","3046","3046","0","test","16","20","1","30","250","600","false","rigged_win","","","",""
"3126","","pre_stim","single-stim-button","276","597755","0.0-16.20-0.20","columbia-card-task-hot","true","0","turnButton","3126","3126","0","test","16","20","1","30","250","600","false","rigged_win","","","",""
"5381","","pre_stim","single-stim-button","277","603139","0.0-16.21-0.21","columbia-card-task-hot","true","0","collectButton","5381","5381","0","test","16","21","1","30","250","600","false","rigged_win","","","",""
"7598","","pre_stim","single-stim-button","278","610739","0.0-17.0-0.0","columbia-card-task-hot","true","0","1","7598","7598","0","test","17","1","1","30","750","30","false","rigged_win","","","",""
"846","","pre_stim","single-stim-button","279","611587","0.0-17.1-0.1","columbia-card-task-hot","true","0","2","846","846","0","test","17","2","1","30","750","60","false","rigged_win","","","",""
"670","","pre_stim","single-stim-button","280","612259","0.0-17.2-0.2","columbia-card-task-hot","true","0","3","670","670","0","test","17","3","1","30","750","90","false","rigged_win","","","",""
"3095","","pre_stim","single-stim-button","281","615356","0.0-17.3-0.3","columbia-card-task-hot","true","0","4","3095","3095","0","test","17","4","1","30","750","120","false","rigged_win","","","",""
"662","","pre_stim","single-stim-button","282","616019","0.0-17.4-0.4","columbia-card-task-hot","true","0","5","662","662","0","test","17","5","1","30","750","150","false","rigged_win","","","",""
"727","","pre_stim","single-stim-button","283","616747","0.0-17.5-0.5","columbia-card-task-hot","true","0","6","727","727","0","test","17","6","1","30","750","180","false","rigged_win","","","",""
"918","","pre_stim","single-stim-button","284","617667","0.0-17.6-0.6","columbia-card-task-hot","true","0","7","918","918","0","test","17","7","1","30","750","210","false","rigged_win","","","",""
"1765","","pre_stim","single-stim-button","285","619435","0.0-17.7-0.7","columbia-card-task-hot","true","0","8","1765","1765","0","test","17","8","1","30","750","240","false","rigged_win","","","",""
"647","","pre_stim","single-stim-button","286","620083","0.0-17.8-0.8","columbia-card-task-hot","true","0","16","647","647","0","test","17","9","1","30","750","270","false","rigged_win","","","",""
"990","","pre_stim","single-stim-button","287","621075","0.0-17.9-0.9","columbia-card-task-hot","true","0","15","990","990","0","test","17","10","1","30","750","300","false","rigged_win","","","",""
"725","","pre_stim","single-stim-button","288","621803","0.0-17.10-0.10","columbia-card-task-hot","true","0","14","725","725","0","test","17","11","1","30","750","330","false","rigged_win","","","",""
"719","","pre_stim","single-stim-button","289","622523","0.0-17.11-0.11","columbia-card-task-hot","true","0","22","719","719","0","test","17","12","1","30","750","360","false","rigged_win","","","",""
"678","","pre_stim","single-stim-button","290","623203","0.0-17.12-0.12","columbia-card-task-hot","true","0","23","678","678","0","test","17","13","1","30","750","390","false","rigged_win","","","",""
"614","","pre_stim","single-stim-button","291","623819","0.0-17.13-0.13","columbia-card-task-hot","true","0","24","614","614","0","test","17","14","1","30","750","420","false","rigged_win","","","",""
"1358","","pre_stim","single-stim-button","292","625180","0.0-17.14-0.14","columbia-card-task-hot","true","0","32","1358","1358","0","test","17","15","1","30","750","450","false","rigged_win","","","",""
"990","","pre_stim","single-stim-button","293","626171","0.0-17.15-0.15","columbia-card-task-hot","true","0","31","990","990","0","test","17","16","1","30","750","480","false","rigged_win","","","",""
"886","","pre_stim","single-stim-button","294","627059","0.0-17.16-0.16","columbia-card-task-hot","true","0","30","886","886","0","test","17","17","1","30","750","510","false","rigged_win","","","",""
"1934","","pre_stim","single-stim-button","295","628995","0.0-17.17-0.17","columbia-card-task-hot","true","0","29","1934","1934","0","test","17","18","1","30","750","540","false","rigged_win","","","",""
"710","","pre_stim","single-stim-button","296","629707","0.0-17.18-0.18","columbia-card-task-hot","true","0","21","710","710","0","test","17","19","1","30","750","570","false","rigged_win","","","",""
"958","","pre_stim","single-stim-button","297","630667","0.0-17.19-0.19","columbia-card-task-hot","true","0","13","958","958","0","test","17","20","1","30","750","600","false","rigged_win","","","",""
"702","","pre_stim","single-stim-button","298","631371","0.0-17.20-0.20","columbia-card-task-hot","true","0","12","702","702","0","test","17","21","1","30","750","630","false","rigged_win","","","",""
"790","","pre_stim","single-stim-button","299","632163","0.0-17.21-0.21","columbia-card-task-hot","true","0","20","790","790","0","test","17","22","1","30","750","660","false","rigged_win","","","",""
"830","","pre_stim","single-stim-button","300","632996","0.0-17.22-0.22","columbia-card-task-hot","true","0","28","830","830","0","test","17","23","1","30","750","690","false","rigged_win","","","",""
"815","","pre_stim","single-stim-button","301","633812","0.0-17.23-0.23","columbia-card-task-hot","true","0","27","815","815","0","test","17","24","1","30","750","720","false","rigged_win","","","",""
"2317","","pre_stim","single-stim-button","302","636132","0.0-17.24-0.24","columbia-card-task-hot","true","0","19","2317","2317","0","test","17","25","1","30","750","750","false","rigged_win","","","",""
"3125","","pre_stim","single-stim-button","303","639260","0.0-17.25-0.25","columbia-card-task-hot","true","0","turnButton","3125","3125","0","test","17","25","1","30","750","750","false","rigged_win","","","",""
"4933","","pre_stim","single-stim-button","304","644196","0.0-17.26-0.26","columbia-card-task-hot","true","0","collectButton","4933","4933","0","test","17","26","1","30","750","750","false","rigged_win","","","",""
"8878","","pre_stim","single-stim-button","305","653076","0.0-18.0-0.0","columbia-card-task-hot","true","0","1","8878","8878","0","test","18","1","3","30","750","30","false","rigged_loss","","","",""
"1926","","pre_stim","single-stim-button","306","655004","0.0-18.1-0.1","columbia-card-task-hot","true","0","2","1926","1926","0","test","18","2","3","30","750","60","false","rigged_loss","","","",""
"629","","pre_stim","single-stim-button","307","655636","0.0-18.2-0.2","columbia-card-task-hot","true","0","3","629","629","0","test","18","3","3","30","750","90","false","rigged_loss","","","",""
"653","","pre_stim","single-stim-button","308","656292","0.0-18.3-0.3","columbia-card-task-hot","true","0","4","653","653","0","test","18","4","3","30","750","120","false","rigged_loss","","","",""
"806","","pre_stim","single-stim-button","309","657100","0.0-18.4-0.4","columbia-card-task-hot","true","0","5","806","806","0","test","18","5","3","30","750","150","false","rigged_loss","","","",""
"669","","pre_stim","single-stim-button","310","657772","0.0-18.5-0.5","columbia-card-task-hot","true","0","6","669","669","0","test","18","6","3","30","750","180","false","rigged_loss","","","",""
"901","","pre_stim","single-stim-button","311","658676","0.0-18.6-0.6","columbia-card-task-hot","true","0","7","901","901","0","test","18","7","3","30","750","210","false","rigged_loss","","","",""
"693","","pre_stim","single-stim-button","312","659371","0.0-18.7-0.7","columbia-card-task-hot","true","0","8","693","693","0","test","18","8","3","30","750","240","false","rigged_loss","","","",""
"1006","","pre_stim","single-stim-button","313","660380","0.0-18.8-0.8","columbia-card-task-hot","true","0","16","1006","1006","0","test","18","9","3","30","750","270","false","rigged_loss","","","",""
"733","","pre_stim","single-stim-button","314","661116","0.0-18.9-0.9","columbia-card-task-hot","true","0","15","733","733","0","test","18","10","3","30","750","-480","true","rigged_loss","","","",""
"3077","","pre_stim","single-stim-button","315","664196","0.0-18.10-0.10","columbia-card-task-hot","true","0","collectButton","3077","3077","0","test","18","11","3","30","750","-480","true","rigged_loss","","","",""
"7798","","pre_stim","single-stim-button","316","671996","0.0-19.0-0.0","columbia-card-task-hot","true","0","25","7798","7798","0","test","19","1","3","30","750","30","false","rigged_win","","","",""
"941","","pre_stim","single-stim-button","317","672940","0.0-19.1-0.1","columbia-card-task-hot","true","0","26","941","941","0","test","19","2","3","30","750","60","false","rigged_win","","","",""
"853","","pre_stim","single-stim-button","318","673796","0.0-19.2-0.2","columbia-card-task-hot","true","0","27","853","853","0","test","19","3","3","30","750","90","false","rigged_win","","","",""
"646","","pre_stim","single-stim-button","319","674444","0.0-19.3-0.3","columbia-card-task-hot","true","0","28","646","646","0","test","19","4","3","30","750","120","false","rigged_win","","","",""
"717","","pre_stim","single-stim-button","320","675164","0.0-19.4-0.4","columbia-card-task-hot","true","0","29","717","717","0","test","19","5","3","30","750","150","false","rigged_win","","","",""
"782","","pre_stim","single-stim-button","321","675948","0.0-19.5-0.5","columbia-card-task-hot","true","0","30","782","782","0","test","19","6","3","30","750","180","false","rigged_win","","","",""
"846","","pre_stim","single-stim-button","322","676796","0.0-19.6-0.6","columbia-card-task-hot","true","0","31","846","846","0","test","19","7","3","30","750","210","false","rigged_win","","","",""
"805","","pre_stim","single-stim-button","323","677604","0.0-19.7-0.7","columbia-card-task-hot","true","0","32","805","805","0","test","19","8","3","30","750","240","false","rigged_win","","","",""
"2069","","pre_stim","single-stim-button","324","679676","0.0-19.8-0.8","columbia-card-task-hot","true","0","24","2069","2069","0","test","19","9","3","30","750","270","false","rigged_win","","","",""
"805","","pre_stim","single-stim-button","325","680484","0.0-19.9-0.9","columbia-card-task-hot","true","0","23","805","805","0","test","19","10","3","30","750","300","false","rigged_win","","","",""
"822","","pre_stim","single-stim-button","326","681307","0.0-19.10-0.10","columbia-card-task-hot","true","0","22","822","822","0","test","19","11","3","30","750","330","false","rigged_win","","","",""
"750","","pre_stim","single-stim-button","327","682060","0.0-19.11-0.11","columbia-card-task-hot","true","0","21","750","750","0","test","19","12","3","30","750","360","false","rigged_win","","","",""
"765","","pre_stim","single-stim-button","328","682828","0.0-19.12-0.12","columbia-card-task-hot","true","0","20","765","765","0","test","19","13","3","30","750","390","false","rigged_win","","","",""
"797","","pre_stim","single-stim-button","329","683627","0.0-19.13-0.13","columbia-card-task-hot","true","0","19","797","797","0","test","19","14","3","30","750","420","false","rigged_win","","","",""
"670","","pre_stim","single-stim-button","330","684300","0.0-19.14-0.14","columbia-card-task-hot","true","0","18","670","670","0","test","19","15","3","30","750","450","false","rigged_win","","","",""
"750","","pre_stim","single-stim-button","331","685052","0.0-19.15-0.15","columbia-card-task-hot","true","0","17","750","750","0","test","19","16","3","30","750","480","false","rigged_win","","","",""
"1254","","pre_stim","single-stim-button","332","686308","0.0-19.16-0.16","columbia-card-task-hot","true","0","9","1254","1254","0","test","19","17","3","30","750","510","false","rigged_win","","","",""
"957","","pre_stim","single-stim-button","333","687268","0.0-19.17-0.17","columbia-card-task-hot","true","0","10","957","957","0","test","19","18","3","30","750","540","false","rigged_win","","","",""
"902","","pre_stim","single-stim-button","334","688172","0.0-19.18-0.18","columbia-card-task-hot","true","0","11","902","902","0","test","19","19","3","30","750","570","false","rigged_win","","","",""
"1222","","pre_stim","single-stim-button","335","689396","0.0-19.19-0.19","columbia-card-task-hot","true","0","12","1222","1222","0","test","19","20","3","30","750","600","false","rigged_win","","","",""
"1310","","pre_stim","single-stim-button","336","690707","0.0-19.20-0.20","columbia-card-task-hot","true","0","13","1310","1310","0","test","19","21","3","30","750","630","false","rigged_win","","","",""
"1190","","pre_stim","single-stim-button","337","691900","0.0-19.21-0.21","columbia-card-task-hot","true","0","14","1190","1190","0","test","19","22","3","30","750","660","false","rigged_win","","","",""
"1111","","pre_stim","single-stim-button","338","693012","0.0-19.22-0.22","columbia-card-task-hot","true","0","15","1111","1111","0","test","19","23","3","30","750","690","false","rigged_win","","","",""
"2678","","pre_stim","single-stim-button","339","695693","0.0-19.23-0.23","columbia-card-task-hot","true","0","7","2678","2678","0","test","19","24","3","30","750","720","false","rigged_win","","","",""
"1895","","pre_stim","single-stim-button","340","697589","0.0-19.24-0.24","columbia-card-task-hot","true","0","8","1895","1895","0","test","19","25","3","30","750","750","false","rigged_win","","","",""
"1413","","pre_stim","single-stim-button","341","699005","0.0-19.25-0.25","columbia-card-task-hot","true","0","16","1413","1413","0","test","19","26","3","30","750","780","false","rigged_win","","","",""
"1773","","pre_stim","single-stim-button","342","700781","0.0-19.26-0.26","columbia-card-task-hot","true","0","6","1773","1773","0","test","19","27","3","30","750","810","false","rigged_win","","","",""
"5910","","pre_stim","single-stim-button","343","706693","0.0-19.27-0.27","columbia-card-task-hot","true","0","turnButton","5910","5910","0","test","19","27","3","30","750","810","false","rigged_win","","","",""
"5245","","pre_stim","single-stim-button","344","711941","0.0-19.28-0.28","columbia-card-task-hot","true","0","collectButton","5245","5245","0","test","19","28","3","30","750","810","false","rigged_win","","","",""
"8759","","pre_stim","single-stim-button","345","720701","0.0-20.0-0.0","columbia-card-task-hot","true","0","25","8759","8759","0","test","20","1","1","10","750","10","false","rigged_win","","","",""
"894","","pre_stim","single-stim-button","346","721597","0.0-20.1-0.1","columbia-card-task-hot","true","0","26","894","894","0","test","20","2","1","10","750","20","false","rigged_win","","","",""
"1430","","pre_stim","single-stim-button","347","723029","0.0-20.2-0.2","columbia-card-task-hot","true","0","27","1430","1430","0","test","20","3","1","10","750","30","false","rigged_win","","","",""
"877","","pre_stim","single-stim-button","348","723909","0.0-20.3-0.3","columbia-card-task-hot","true","0","28","877","877","0","test","20","4","1","10","750","40","false","rigged_win","","","",""
"1117","","pre_stim","single-stim-button","349","725029","0.0-20.4-0.4","columbia-card-task-hot","true","0","29","1117","1117","0","test","20","5","1","10","750","50","false","rigged_win","","","",""
"725","","pre_stim","single-stim-button","350","725757","0.0-20.5-0.5","columbia-card-task-hot","true","0","30","725","725","0","test","20","6","1","10","750","60","false","rigged_win","","","",""
"581","","pre_stim","single-stim-button","351","726341","0.0-20.6-0.6","columbia-card-task-hot","true","0","31","581","581","0","test","20","7","1","10","750","70","false","rigged_win","","","",""
"606","","pre_stim","single-stim-button","352","726949","0.0-20.7-0.7","columbia-card-task-hot","true","0","32","606","606","0","test","20","8","1","10","750","80","false","rigged_win","","","",""
"1789","","pre_stim","single-stim-button","353","728741","0.0-20.8-0.8","columbia-card-task-hot","true","0","24","1789","1789","0","test","20","9","1","10","750","90","false","rigged_win","","","",""
"629","","pre_stim","single-stim-button","354","729373","0.0-20.9-0.9","columbia-card-task-hot","true","0","23","629","629","0","test","20","10","1","10","750","100","false","rigged_win","","","",""
"653","","pre_stim","single-stim-button","355","730029","0.0-20.10-0.10","columbia-card-task-hot","true","0","22","653","653","0","test","20","11","1","10","750","110","false","rigged_win","","","",""
"597","","pre_stim","single-stim-button","356","730629","0.0-20.11-0.11","columbia-card-task-hot","true","0","21","597","597","0","test","20","12","1","10","750","120","false","rigged_win","","","",""
"653","","pre_stim","single-stim-button","357","731285","0.0-20.12-0.12","columbia-card-task-hot","true","0","20","653","653","0","test","20","13","1","10","750","130","false","rigged_win","","","",""
"1405","","pre_stim","single-stim-button","358","732693","0.0-20.13-0.13","columbia-card-task-hot","true","0","12","1405","1405","0","test","20","14","1","10","750","140","false","rigged_win","","","",""
"998","","pre_stim","single-stim-button","359","733693","0.0-20.14-0.14","columbia-card-task-hot","true","0","13","998","998","0","test","20","15","1","10","750","150","false","rigged_win","","","",""
"710","","pre_stim","single-stim-button","360","734405","0.0-20.15-0.15","columbia-card-task-hot","true","0","14","710","710","0","test","20","16","1","10","750","160","false","rigged_win","","","",""
"1005","","pre_stim","single-stim-button","361","735413","0.0-20.16-0.16","columbia-card-task-hot","true","0","15","1005","1005","0","test","20","17","1","10","750","170","false","rigged_win","","","",""
"958","","pre_stim","single-stim-button","362","736373","0.0-20.17-0.17","columbia-card-task-hot","true","0","16","958","958","0","test","20","18","1","10","750","180","false","rigged_win","","","",""
"1415","","pre_stim","single-stim-button","363","737789","0.0-20.18-0.18","columbia-card-task-hot","true","0","8","1415","1415","0","test","20","19","1","10","750","190","false","rigged_win","","","",""
"933","","pre_stim","single-stim-button","364","738725","0.0-20.19-0.19","columbia-card-task-hot","true","0","7","933","933","0","test","20","20","1","10","750","200","false","rigged_win","","","",""
"830","","pre_stim","single-stim-button","365","739556","0.0-20.20-0.20","columbia-card-task-hot","true","0","6","830","830","0","test","20","21","1","10","750","210","false","rigged_win","","","",""
"870","","pre_stim","single-stim-button","366","740429","0.0-20.21-0.21","columbia-card-task-hot","true","0","5","870","870","0","test","20","22","1","10","750","220","false","rigged_win","","","",""
"1126","","pre_stim","single-stim-button","367","741557","0.0-20.22-0.22","columbia-card-task-hot","true","0","4","1126","1126","0","test","20","23","1","10","750","230","false","rigged_win","","","",""
"3069","","pre_stim","single-stim-button","368","744629","0.0-20.23-0.23","columbia-card-task-hot","true","0","19","3069","3069","0","test","20","24","1","10","750","240","false","rigged_win","","","",""
"1325","","pre_stim","single-stim-button","369","745957","0.0-20.24-0.24","columbia-card-task-hot","true","0","18","1325","1325","0","test","20","25","1","10","750","250","false","rigged_win","","","",""
"2749","","pre_stim","single-stim-button","370","748709","0.0-20.25-0.25","columbia-card-task-hot","true","0","17","2749","2749","0","test","20","26","1","10","750","260","false","rigged_win","","","",""
"2541","","pre_stim","single-stim-button","371","751253","0.0-20.26-0.26","columbia-card-task-hot","true","0","11","2541","2541","0","test","20","27","1","10","750","270","false","rigged_win","","","",""
"3046","","pre_stim","single-stim-button","372","754301","0.0-20.27-0.27","columbia-card-task-hot","true","0","turnButton","3046","3046","0","test","20","27","1","10","750","270","false","rigged_win","","","",""
"4366","","pre_stim","single-stim-button","373","758669","0.0-20.28-0.28","columbia-card-task-hot","true","0","collectButton","4366","4366","0","test","20","28","1","10","750","270","false","rigged_win","","","",""
"46532","{""Q0"":""Verliererkarten nicht anzuklicken nach vorheriger Sichtung und Vermischung"",""Q1"":""ging sehr schnell""}","post task questions","survey-text","374","805205","0.0-21.0","columbia-card-task-hot","true","0","","","","","","","","","","","","","","true","0","",""
"3236","","","poldrack-text","375","809470","0.0-22.0","columbia-card-task-hot","true","0","","","3236","1000","","","","","","","","","","","","<div class = centerbox><p class = center-block-text>Finished with this task.</p></div>","17"
