"rt","responses","trial_id","trial_type","trial_index","time_elapsed","internal_node_id","exp_id","full_screen","focus_shifts","mouse_click","stim_duration","block_duration","timing_post_trial","exp_stage","which_round","num_click_in_round","num_loss_cards","gain_amount","loss_amount","round_points","clicked_on_loss_card","round_type","credit_var","performance_var","text","key_press"
"14509","{""Q0"":""-p0T1""}","pre task questions","survey-text","0","14511","0.0-0.0","columbia-card-task-hot","false","0","","","","","","","","","","","","","","","","",""
"6541","","pre_stim","single-stim-button","1","22063","0.0-1.0-0.0","columbia-card-task-hot","false","0","7","6541","6541","0","test","1","1","1","10","750","10","false","rigged_loss","","","",""
"549","","pre_stim","single-stim-button","2","22614","0.0-1.1-0.1","columbia-card-task-hot","false","0","15","549","549","0","test","1","2","1","10","750","20","false","rigged_loss","","","",""
"511","","pre_stim","single-stim-button","3","23126","0.0-1.2-0.2","columbia-card-task-hot","false","0","23","511","511","0","test","1","3","1","10","750","30","false","rigged_loss","","","",""
"527","","pre_stim","single-stim-button","4","23654","0.0-1.3-0.3","columbia-card-task-hot","false","0","31","527","527","0","test","1","4","1","10","750","40","false","rigged_loss","","","",""
"608","","pre_stim","single-stim-button","5","24262","0.0-1.4-0.4","columbia-card-task-hot","false","0","30","608","608","0","test","1","5","1","10","750","50","false","rigged_loss","","","",""
"438","","pre_stim","single-stim-button","6","24702","0.0-1.5-0.5","columbia-card-task-hot","false","0","22","438","438","0","test","1","6","1","10","750","60","false","rigged_loss","","","",""
"776","","pre_stim","single-stim-button","7","25478","0.0-1.6-0.6","columbia-card-task-hot","false","0","13","776","776","0","test","1","7","1","10","750","70","false","rigged_loss","","","",""
"839","","pre_stim","single-stim-button","8","26318","0.0-1.7-0.7","columbia-card-task-hot","false","0","4","839","839","0","test","1","8","1","10","750","80","false","rigged_loss","","","",""
"550","","pre_stim","single-stim-button","9","26870","0.0-1.8-0.8","columbia-card-task-hot","false","0","12","550","550","0","test","1","9","1","10","750","90","false","rigged_loss","","","",""
"471","","pre_stim","single-stim-button","10","27342","0.0-1.9-0.9","columbia-card-task-hot","false","0","3","471","471","0","test","1","10","1","10","750","100","false","rigged_loss","","","",""
"407","","pre_stim","single-stim-button","11","27750","0.0-1.10-0.10","columbia-card-task-hot","false","0","11","407","407","0","test","1","11","1","10","750","110","false","rigged_loss","","","",""
"503","","pre_stim","single-stim-button","12","28254","0.0-1.11-0.11","columbia-card-task-hot","false","0","10","503","503","0","test","1","12","1","10","750","120","false","rigged_loss","","","",""
"535","","pre_stim","single-stim-button","13","28790","0.0-1.12-0.12","columbia-card-task-hot","false","0","2","535","535","0","test","1","13","1","10","750","130","false","rigged_loss","","","",""
"544","","pre_stim","single-stim-button","14","29334","0.0-1.13-0.13","columbia-card-task-hot","false","0","1","544","544","0","test","1","14","1","10","750","140","false","rigged_loss","","","",""
"430","","pre_stim","single-stim-button","15","29766","0.0-1.14-0.14","columbia-card-task-hot","false","0","9","430","430","0","test","1","15","1","10","750","150","false","rigged_loss","","","",""
"1319","","pre_stim","single-stim-button","16","31087","0.0-1.15-0.15","columbia-card-task-hot","false","0","20","1319","1319","0","test","1","16","1","10","750","160","false","rigged_loss","","","",""
"2047","","pre_stim","single-stim-button","17","33134","0.0-1.16-0.16","columbia-card-task-hot","false","0","turnButton","2047","2047","0","test","1","16","1","10","750","160","false","rigged_loss","","","",""
"4119","","pre_stim","single-stim-button","18","37254","0.0-1.17-0.17","columbia-card-task-hot","false","0","collectButton","4119","4119","0","test","1","17","1","10","750","160","false","rigged_loss","","","",""
"6543","","pre_stim","single-stim-button","19","43798","0.0-2.0-0.0","columbia-card-task-hot","false","0","8","6543","6543","0","test","2","1","3","10","750","10","false","rigged_win","","","",""
"846","","pre_stim","single-stim-button","20","44646","0.0-2.1-0.1","columbia-card-task-hot","false","0","1","846","846","0","test","2","2","3","10","750","20","false","rigged_win","","","",""
"447","","pre_stim","single-stim-button","21","45094","0.0-2.2-0.2","columbia-card-task-hot","false","0","9","447","447","0","test","2","3","3","10","750","30","false","rigged_win","","","",""
"927","","pre_stim","single-stim-button","22","46022","0.0-2.3-0.3","columbia-card-task-hot","false","0","2","927","927","0","test","2","4","3","10","750","40","false","rigged_win","","","",""
"1008","","pre_stim","single-stim-button","23","47030","0.0-2.4-0.4","columbia-card-task-hot","false","0","19","1008","1008","0","test","2","5","3","10","750","50","false","rigged_win","","","",""
"471","","pre_stim","single-stim-button","24","47503","0.0-2.5-0.5","columbia-card-task-hot","false","0","28","471","471","0","test","2","6","3","10","750","60","false","rigged_win","","","",""
"487","","pre_stim","single-stim-button","25","47990","0.0-2.6-0.6","columbia-card-task-hot","false","0","20","487","487","0","test","2","7","3","10","750","70","false","rigged_win","","","",""
"887","","pre_stim","single-stim-button","26","48878","0.0-2.7-0.7","columbia-card-task-hot","false","0","21","887","887","0","test","2","8","3","10","750","80","false","rigged_win","","","",""
"1567","","pre_stim","single-stim-button","27","50446","0.0-2.8-0.8","columbia-card-task-hot","false","0","22","1567","1567","0","test","2","9","3","10","750","90","false","rigged_win","","","",""
"1599","","pre_stim","single-stim-button","28","52046","0.0-2.9-0.9","columbia-card-task-hot","false","0","turnButton","1599","1599","0","test","2","9","3","10","750","90","false","rigged_win","","","",""
"4151","","pre_stim","single-stim-button","29","56198","0.0-2.10-0.10","columbia-card-task-hot","false","0","collectButton","4151","4151","0","test","2","10","3","10","750","90","false","rigged_win","","","",""
"6487","","pre_stim","single-stim-button","30","62686","0.0-3.0-0.0","columbia-card-task-hot","false","0","15","6487","6487","0","test","3","1","3","10","250","10","false","rigged_win","","","",""
"695","","pre_stim","single-stim-button","31","63382","0.0-3.1-0.1","columbia-card-task-hot","false","0","16","695","695","0","test","3","2","3","10","250","20","false","rigged_win","","","",""
"798","","pre_stim","single-stim-button","32","64182","0.0-3.2-0.2","columbia-card-task-hot","false","0","23","798","798","0","test","3","3","3","10","250","30","false","rigged_win","","","",""
"463","","pre_stim","single-stim-button","33","64646","0.0-3.3-0.3","columbia-card-task-hot","false","0","24","463","463","0","test","3","4","3","10","250","40","false","rigged_win","","","",""
"1263","","pre_stim","single-stim-button","34","65910","0.0-3.4-0.4","columbia-card-task-hot","false","0","31","1263","1263","0","test","3","5","3","10","250","50","false","rigged_win","","","",""
"798","","pre_stim","single-stim-button","35","66710","0.0-3.5-0.5","columbia-card-task-hot","false","0","32","798","798","0","test","3","6","3","10","250","60","false","rigged_win","","","",""
"1023","","pre_stim","single-stim-button","36","67734","0.0-3.6-0.6","columbia-card-task-hot","false","0","22","1023","1023","0","test","3","7","3","10","250","70","false","rigged_win","","","",""
"535","","pre_stim","single-stim-button","37","68270","0.0-3.7-0.7","columbia-card-task-hot","false","0","30","535","535","0","test","3","8","3","10","250","80","false","rigged_win","","","",""
"2878","","pre_stim","single-stim-button","38","71150","0.0-3.8-0.8","columbia-card-task-hot","false","0","14","2878","2878","0","test","3","9","3","10","250","90","false","rigged_win","","","",""
"784","","pre_stim","single-stim-button","39","71934","0.0-3.9-0.9","columbia-card-task-hot","false","0","13","784","784","0","test","3","10","3","10","250","100","false","rigged_win","","","",""
"2126","","pre_stim","single-stim-button","40","74062","0.0-3.10-0.10","columbia-card-task-hot","false","0","5","2126","2126","0","test","3","11","3","10","250","110","false","rigged_win","","","",""
"1271","","pre_stim","single-stim-button","41","75335","0.0-3.11-0.11","columbia-card-task-hot","false","0","turnButton","1271","1271","0","test","3","11","3","10","250","110","false","rigged_win","","","",""
"3215","","pre_stim","single-stim-button","42","78550","0.0-3.12-0.12","columbia-card-task-hot","false","0","collectButton","3215","3215","0","test","3","12","3","10","250","110","false","rigged_win","","","",""
"6358","","pre_stim","single-stim-button","43","84910","0.0-4.0-0.0","columbia-card-task-hot","false","0","5","6358","6358","0","test","4","1","1","30","750","30","false","rigged_win","","","",""
"455","","pre_stim","single-stim-button","44","85366","0.0-4.1-0.1","columbia-card-task-hot","false","0","4","455","455","0","test","4","2","1","30","750","60","false","rigged_win","","","",""
"527","","pre_stim","single-stim-button","45","85894","0.0-4.2-0.2","columbia-card-task-hot","false","0","3","527","527","0","test","4","3","1","30","750","90","false","rigged_win","","","",""
"431","","pre_stim","single-stim-button","46","86326","0.0-4.3-0.3","columbia-card-task-hot","false","0","2","431","431","0","test","4","4","1","30","750","120","false","rigged_win","","","",""
"488","","pre_stim","single-stim-button","47","86814","0.0-4.4-0.4","columbia-card-task-hot","false","0","1","488","488","0","test","4","5","1","30","750","150","false","rigged_win","","","",""
"518","","pre_stim","single-stim-button","48","87334","0.0-4.5-0.5","columbia-card-task-hot","false","0","9","518","518","0","test","4","6","1","30","750","180","false","rigged_win","","","",""
"415","","pre_stim","single-stim-button","49","87750","0.0-4.6-0.6","columbia-card-task-hot","false","0","10","415","415","0","test","4","7","1","30","750","210","false","rigged_win","","","",""
"902","","pre_stim","single-stim-button","50","88653","0.0-4.7-0.7","columbia-card-task-hot","false","0","12","902","902","0","test","4","8","1","30","750","240","false","rigged_win","","","",""
"535","","pre_stim","single-stim-button","51","89190","0.0-4.8-0.8","columbia-card-task-hot","false","0","11","535","535","0","test","4","9","1","30","750","270","false","rigged_win","","","",""
"528","","pre_stim","single-stim-button","52","89718","0.0-4.9-0.9","columbia-card-task-hot","false","0","13","528","528","0","test","4","10","1","30","750","300","false","rigged_win","","","",""
"686","","pre_stim","single-stim-button","53","90406","0.0-4.10-0.10","columbia-card-task-hot","false","0","21","686","686","0","test","4","11","1","30","750","330","false","rigged_win","","","",""
"527","","pre_stim","single-stim-button","54","90934","0.0-4.11-0.11","columbia-card-task-hot","false","0","20","527","527","0","test","4","12","1","30","750","360","false","rigged_win","","","",""
"479","","pre_stim","single-stim-button","55","91414","0.0-4.12-0.12","columbia-card-task-hot","false","0","19","479","479","0","test","4","13","1","30","750","390","false","rigged_win","","","",""
"495","","pre_stim","single-stim-button","56","91910","0.0-4.13-0.13","columbia-card-task-hot","false","0","18","495","495","0","test","4","14","1","30","750","420","false","rigged_win","","","",""
"519","","pre_stim","single-stim-button","57","92430","0.0-4.14-0.14","columbia-card-task-hot","false","0","17","519","519","0","test","4","15","1","30","750","450","false","rigged_win","","","",""
"736","","pre_stim","single-stim-button","58","93166","0.0-4.15-0.15","columbia-card-task-hot","false","0","25","736","736","0","test","4","16","1","30","750","480","false","rigged_win","","","",""
"486","","pre_stim","single-stim-button","59","93654","0.0-4.16-0.16","columbia-card-task-hot","false","0","26","486","486","0","test","4","17","1","30","750","510","false","rigged_win","","","",""
"502","","pre_stim","single-stim-button","60","94158","0.0-4.17-0.17","columbia-card-task-hot","false","0","27","502","502","0","test","4","18","1","30","750","540","false","rigged_win","","","",""
"1822","","pre_stim","single-stim-button","61","95982","0.0-4.18-0.18","columbia-card-task-hot","false","0","turnButton","1822","1822","0","test","4","18","1","30","750","540","false","rigged_win","","","",""
"4862","","pre_stim","single-stim-button","62","100846","0.0-4.19-0.19","columbia-card-task-hot","false","0","collectButton","4862","4862","0","test","4","19","1","30","750","540","false","rigged_win","","","",""
"6679","","pre_stim","single-stim-button","63","107526","0.0-5.0-0.0","columbia-card-task-hot","false","0","11","6679","6679","0","test","5","1","3","30","750","30","false","rigged_loss","","","",""
"647","","pre_stim","single-stim-button","64","108174","0.0-5.1-0.1","columbia-card-task-hot","false","0","19","647","647","0","test","5","2","3","30","750","60","false","rigged_loss","","","",""
"447","","pre_stim","single-stim-button","65","108622","0.0-5.2-0.2","columbia-card-task-hot","false","0","20","447","447","0","test","5","3","3","30","750","90","false","rigged_loss","","","",""
"447","","pre_stim","single-stim-button","66","109070","0.0-5.3-0.3","columbia-card-task-hot","false","0","21","447","447","0","test","5","4","3","30","750","120","false","rigged_loss","","","",""
"1166","","pre_stim","single-stim-button","67","110238","0.0-5.4-0.4","columbia-card-task-hot","false","0","14","1166","1166","0","test","5","5","3","30","750","150","false","rigged_loss","","","",""
"559","","pre_stim","single-stim-button","68","110798","0.0-5.5-0.5","columbia-card-task-hot","false","0","22","559","559","0","test","5","6","3","30","750","180","false","rigged_loss","","","",""
"495","","pre_stim","single-stim-button","69","111294","0.0-5.6-0.6","columbia-card-task-hot","false","0","15","495","495","0","test","5","7","3","30","750","210","false","rigged_loss","","","",""
"799","","pre_stim","single-stim-button","70","112094","0.0-5.7-0.7","columbia-card-task-hot","false","0","23","799","799","0","test","5","8","3","30","750","240","false","rigged_loss","","","",""
"470","","pre_stim","single-stim-button","71","112566","0.0-5.8-0.8","columbia-card-task-hot","false","0","16","470","470","0","test","5","9","3","30","750","-510","true","rigged_loss","","","",""
"4951","","pre_stim","single-stim-button","72","117518","0.0-5.9-0.9","columbia-card-task-hot","false","0","collectButton","4951","4951","0","test","5","10","3","30","750","-510","true","rigged_loss","","","",""
"7270","","pre_stim","single-stim-button","73","124790","0.0-6.0-0.0","columbia-card-task-hot","false","0","1","7270","7270","0","test","6","1","1","10","250","10","false","rigged_win","","","",""
"399","","pre_stim","single-stim-button","74","125191","0.0-6.1-0.1","columbia-card-task-hot","false","0","9","399","399","0","test","6","2","1","10","250","20","false","rigged_win","","","",""
"1551","","pre_stim","single-stim-button","75","126742","0.0-6.2-0.2","columbia-card-task-hot","false","0","17","1551","1551","0","test","6","3","1","10","250","30","false","rigged_win","","","",""
"543","","pre_stim","single-stim-button","76","127287","0.0-6.3-0.3","columbia-card-task-hot","false","0","25","543","543","0","test","6","4","1","10","250","40","false","rigged_win","","","",""
"927","","pre_stim","single-stim-button","77","128215","0.0-6.4-0.4","columbia-card-task-hot","false","0","18","927","927","0","test","6","5","1","10","250","50","false","rigged_win","","","",""
"407","","pre_stim","single-stim-button","78","128622","0.0-6.5-0.5","columbia-card-task-hot","false","0","26","407","407","0","test","6","6","1","10","250","60","false","rigged_win","","","",""
"671","","pre_stim","single-stim-button","79","129295","0.0-6.6-0.6","columbia-card-task-hot","false","0","10","671","671","0","test","6","7","1","10","250","70","false","rigged_win","","","",""
"462","","pre_stim","single-stim-button","80","129759","0.0-6.7-0.7","columbia-card-task-hot","false","0","2","462","462","0","test","6","8","1","10","250","80","false","rigged_win","","","",""
"1055","","pre_stim","single-stim-button","81","130814","0.0-6.8-0.8","columbia-card-task-hot","false","0","3","1055","1055","0","test","6","9","1","10","250","90","false","rigged_win","","","",""
"1174","","pre_stim","single-stim-button","82","131990","0.0-6.9-0.9","columbia-card-task-hot","false","0","11","1174","1174","0","test","6","10","1","10","250","100","false","rigged_win","","","",""
"551","","pre_stim","single-stim-button","83","132542","0.0-6.10-0.10","columbia-card-task-hot","false","0","19","551","551","0","test","6","11","1","10","250","110","false","rigged_win","","","",""
"623","","pre_stim","single-stim-button","84","133166","0.0-6.11-0.11","columbia-card-task-hot","false","0","27","623","623","0","test","6","12","1","10","250","120","false","rigged_win","","","",""
"447","","pre_stim","single-stim-button","85","133615","0.0-6.12-0.12","columbia-card-task-hot","false","0","28","447","447","0","test","6","13","1","10","250","130","false","rigged_win","","","",""
"551","","pre_stim","single-stim-button","86","134167","0.0-6.13-0.13","columbia-card-task-hot","false","0","20","551","551","0","test","6","14","1","10","250","140","false","rigged_win","","","",""
"567","","pre_stim","single-stim-button","87","134735","0.0-6.14-0.14","columbia-card-task-hot","false","0","12","567","567","0","test","6","15","1","10","250","150","false","rigged_win","","","",""
"591","","pre_stim","single-stim-button","88","135327","0.0-6.15-0.15","columbia-card-task-hot","false","0","4","591","591","0","test","6","16","1","10","250","160","false","rigged_win","","","",""
"431","","pre_stim","single-stim-button","89","135758","0.0-6.16-0.16","columbia-card-task-hot","false","0","5","431","431","0","test","6","17","1","10","250","170","false","rigged_win","","","",""
"1279","","pre_stim","single-stim-button","90","137039","0.0-6.17-0.17","columbia-card-task-hot","false","0","13","1279","1279","0","test","6","18","1","10","250","180","false","rigged_win","","","",""
"1111","","pre_stim","single-stim-button","91","138150","0.0-6.18-0.18","columbia-card-task-hot","false","0","29","1111","1111","0","test","6","19","1","10","250","190","false","rigged_win","","","",""
"479","","pre_stim","single-stim-button","92","138631","0.0-6.19-0.19","columbia-card-task-hot","false","0","21","479","479","0","test","6","20","1","10","250","200","false","rigged_win","","","",""
"527","","pre_stim","single-stim-button","93","139158","0.0-6.20-0.20","columbia-card-task-hot","false","0","30","527","527","0","test","6","21","1","10","250","210","false","rigged_win","","","",""
"511","","pre_stim","single-stim-button","94","139671","0.0-6.21-0.21","columbia-card-task-hot","false","0","22","511","511","0","test","6","22","1","10","250","220","false","rigged_win","","","",""
"1999","","pre_stim","single-stim-button","95","141671","0.0-6.22-0.22","columbia-card-task-hot","false","0","14","1999","1999","0","test","6","23","1","10","250","230","false","rigged_win","","","",""
"1023","","pre_stim","single-stim-button","96","142694","0.0-6.23-0.23","columbia-card-task-hot","false","0","6","1023","1023","0","test","6","24","1","10","250","240","false","rigged_win","","","",""
"1743","","pre_stim","single-stim-button","97","144439","0.0-6.24-0.24","columbia-card-task-hot","false","0","32","1743","1743","0","test","6","25","1","10","250","250","false","rigged_win","","","",""
"510","","pre_stim","single-stim-button","98","144950","0.0-6.25-0.25","columbia-card-task-hot","false","0","31","510","510","0","test","6","26","1","10","250","260","false","rigged_win","","","",""
"1039","","pre_stim","single-stim-button","99","145991","0.0-6.26-0.26","columbia-card-task-hot","false","0","23","1039","1039","0","test","6","27","1","10","250","270","false","rigged_win","","","",""
"599","","pre_stim","single-stim-button","100","146590","0.0-6.27-0.27","columbia-card-task-hot","false","0","24","599","599","0","test","6","28","1","10","250","280","false","rigged_win","","","",""
"1551","","pre_stim","single-stim-button","101","148143","0.0-6.28-0.28","columbia-card-task-hot","false","0","turnButton","1551","1551","0","test","6","28","1","10","250","280","false","rigged_win","","","",""
"2774","","pre_stim","single-stim-button","102","150918","0.0-6.29-0.29","columbia-card-task-hot","false","0","collectButton","2774","2774","0","test","6","29","1","10","250","280","false","rigged_win","","","",""
"6655","","pre_stim","single-stim-button","103","157575","0.0-7.0-0.0","columbia-card-task-hot","false","0","13","6655","6655","0","test","7","1","3","30","750","30","false","rigged_loss","","","",""
"423","","pre_stim","single-stim-button","104","157999","0.0-7.1-0.1","columbia-card-task-hot","false","0","14","423","423","0","test","7","2","3","30","750","60","false","rigged_loss","","","",""
"391","","pre_stim","single-stim-button","105","158391","0.0-7.2-0.2","columbia-card-task-hot","false","0","22","391","391","0","test","7","3","3","30","750","90","false","rigged_loss","","","",""
"407","","pre_stim","single-stim-button","106","158799","0.0-7.3-0.3","columbia-card-task-hot","false","0","21","407","407","0","test","7","4","3","30","750","120","false","rigged_loss","","","",""
"743","","pre_stim","single-stim-button","107","159543","0.0-7.4-0.4","columbia-card-task-hot","false","0","30","743","743","0","test","7","5","3","30","750","150","false","rigged_loss","","","",""
"439","","pre_stim","single-stim-button","108","159983","0.0-7.5-0.5","columbia-card-task-hot","false","0","29","439","439","0","test","7","6","3","30","750","180","false","rigged_loss","","","",""
"503","","pre_stim","single-stim-button","109","160487","0.0-7.6-0.6","columbia-card-task-hot","false","0","31","503","503","0","test","7","7","3","30","750","-570","true","rigged_loss","","","",""
"4214","","pre_stim","single-stim-button","110","164702","0.0-7.7-0.7","columbia-card-task-hot","false","0","collectButton","4214","4214","0","test","7","8","3","30","750","-570","true","rigged_loss","","","",""
"6287","","pre_stim","single-stim-button","111","170991","0.0-8.0-0.0","columbia-card-task-hot","false","0","6","6287","6287","0","test","8","1","3","10","750","10","false","rigged_win","","","",""
"422","","pre_stim","single-stim-button","112","171414","0.0-8.1-0.1","columbia-card-task-hot","false","0","5","422","422","0","test","8","2","3","10","750","20","false","rigged_win","","","",""
"1455","","pre_stim","single-stim-button","113","172871","0.0-8.2-0.2","columbia-card-task-hot","false","0","4","1455","1455","0","test","8","3","3","10","750","30","false","rigged_win","","","",""
"423","","pre_stim","single-stim-button","114","173295","0.0-8.3-0.3","columbia-card-task-hot","false","0","12","423","423","0","test","8","4","3","10","750","40","false","rigged_win","","","",""
"415","","pre_stim","single-stim-button","115","173711","0.0-8.4-0.4","columbia-card-task-hot","false","0","13","415","415","0","test","8","5","3","10","750","50","false","rigged_win","","","",""
"1295","","pre_stim","single-stim-button","116","175007","0.0-8.5-0.5","columbia-card-task-hot","false","0","30","1295","1295","0","test","8","6","3","10","750","60","false","rigged_win","","","",""
"407","","pre_stim","single-stim-button","117","175415","0.0-8.6-0.6","columbia-card-task-hot","false","0","29","407","407","0","test","8","7","3","10","750","70","false","rigged_win","","","",""
"1790","","pre_stim","single-stim-button","118","177206","0.0-8.7-0.7","columbia-card-task-hot","false","0","28","1790","1790","0","test","8","8","3","10","750","80","false","rigged_win","","","",""
"615","","pre_stim","single-stim-button","119","177823","0.0-8.8-0.8","columbia-card-task-hot","false","0","14","615","615","0","test","8","9","3","10","750","90","false","rigged_win","","","",""
"1367","","pre_stim","single-stim-button","120","179190","0.0-8.9-0.9","columbia-card-task-hot","false","0","18","1367","1367","0","test","8","10","3","10","750","100","false","rigged_win","","","",""
"623","","pre_stim","single-stim-button","121","179815","0.0-8.10-0.10","columbia-card-task-hot","false","0","19","623","623","0","test","8","11","3","10","750","110","false","rigged_win","","","",""
"1847","","pre_stim","single-stim-button","122","181663","0.0-8.11-0.11","columbia-card-task-hot","false","0","turnButton","1847","1847","0","test","8","11","3","10","750","110","false","rigged_win","","","",""
"3926","","pre_stim","single-stim-button","123","185591","0.0-8.12-0.12","columbia-card-task-hot","false","0","collectButton","3926","3926","0","test","8","12","3","10","750","110","false","rigged_win","","","",""
"7319","","pre_stim","single-stim-button","124","192911","0.0-9.0-0.0","columbia-card-task-hot","false","0","20","7319","7319","0","test","9","1","1","30","250","30","false","rigged_win","","","",""
"439","","pre_stim","single-stim-button","125","193350","0.0-9.1-0.1","columbia-card-task-hot","false","0","28","439","439","0","test","9","2","1","30","250","60","false","rigged_win","","","",""
"495","","pre_stim","single-stim-button","126","193847","0.0-9.2-0.2","columbia-card-task-hot","false","0","27","495","495","0","test","9","3","1","30","250","90","false","rigged_win","","","",""
"423","","pre_stim","single-stim-button","127","194270","0.0-9.3-0.3","columbia-card-task-hot","false","0","19","423","423","0","test","9","4","1","30","250","120","false","rigged_win","","","",""
"439","","pre_stim","single-stim-button","128","194710","0.0-9.4-0.4","columbia-card-task-hot","false","0","18","439","439","0","test","9","5","1","30","250","150","false","rigged_win","","","",""
"439","","pre_stim","single-stim-button","129","195150","0.0-9.5-0.5","columbia-card-task-hot","false","0","26","439","439","0","test","9","6","1","30","250","180","false","rigged_win","","","",""
"759","","pre_stim","single-stim-button","130","195910","0.0-9.6-0.6","columbia-card-task-hot","false","0","17","759","759","0","test","9","7","1","30","250","210","false","rigged_win","","","",""
"439","","pre_stim","single-stim-button","131","196350","0.0-9.7-0.7","columbia-card-task-hot","false","0","25","439","439","0","test","9","8","1","30","250","240","false","rigged_win","","","",""
"1567","","pre_stim","single-stim-button","132","197919","0.0-9.8-0.8","columbia-card-task-hot","false","0","9","1567","1567","0","test","9","9","1","30","250","270","false","rigged_win","","","",""
"470","","pre_stim","single-stim-button","133","198390","0.0-9.9-0.9","columbia-card-task-hot","false","0","10","470","470","0","test","9","10","1","30","250","300","false","rigged_win","","","",""
"887","","pre_stim","single-stim-button","134","199279","0.0-9.10-0.10","columbia-card-task-hot","false","0","12","887","887","0","test","9","11","1","30","250","330","false","rigged_win","","","",""
"1334","","pre_stim","single-stim-button","135","200614","0.0-9.11-0.11","columbia-card-task-hot","false","0","3","1334","1334","0","test","9","12","1","30","250","360","false","rigged_win","","","",""
"575","","pre_stim","single-stim-button","136","201190","0.0-9.12-0.12","columbia-card-task-hot","false","0","11","575","575","0","test","9","13","1","30","250","390","false","rigged_win","","","",""
"487","","pre_stim","single-stim-button","137","201678","0.0-9.13-0.13","columbia-card-task-hot","false","0","4","487","487","0","test","9","14","1","30","250","420","false","rigged_win","","","",""
"543","","pre_stim","single-stim-button","138","202223","0.0-9.14-0.14","columbia-card-task-hot","false","0","2","543","543","0","test","9","15","1","30","250","450","false","rigged_win","","","",""
"471","","pre_stim","single-stim-button","139","202694","0.0-9.15-0.15","columbia-card-task-hot","false","0","1","471","471","0","test","9","16","1","30","250","480","false","rigged_win","","","",""
"838","","pre_stim","single-stim-button","140","203535","0.0-9.16-0.16","columbia-card-task-hot","false","0","8","838","838","0","test","9","17","1","30","250","510","false","rigged_win","","","",""
"3455","","pre_stim","single-stim-button","141","206991","0.0-9.17-0.17","columbia-card-task-hot","false","0","7","3455","3455","0","test","9","18","1","30","250","540","false","rigged_win","","","",""
"871","","pre_stim","single-stim-button","142","207862","0.0-9.18-0.18","columbia-card-task-hot","false","0","turnButton","871","871","0","test","9","18","1","30","250","540","false","rigged_win","","","",""
"3639","","pre_stim","single-stim-button","143","211502","0.0-9.19-0.19","columbia-card-task-hot","false","0","collectButton","3639","3639","0","test","9","19","1","30","250","540","false","rigged_win","","","",""
"7719","","pre_stim","single-stim-button","144","219223","0.0-10.0-0.0","columbia-card-task-hot","false","0","29","7719","7719","0","test","10","1","3","30","250","30","false","rigged_win","","","",""
"863","","pre_stim","single-stim-button","145","220087","0.0-10.1-0.1","columbia-card-task-hot","false","0","21","863","863","0","test","10","2","3","30","250","60","false","rigged_win","","","",""
"478","","pre_stim","single-stim-button","146","220567","0.0-10.2-0.2","columbia-card-task-hot","false","0","20","478","478","0","test","10","3","3","30","250","90","false","rigged_win","","","",""
"431","","pre_stim","single-stim-button","147","220999","0.0-10.3-0.3","columbia-card-task-hot","false","0","28","431","431","0","test","10","4","3","30","250","120","false","rigged_win","","","",""
"462","","pre_stim","single-stim-button","148","221462","0.0-10.4-0.4","columbia-card-task-hot","false","0","27","462","462","0","test","10","5","3","30","250","150","false","rigged_win","","","",""
"439","","pre_stim","single-stim-button","149","221902","0.0-10.5-0.5","columbia-card-task-hot","false","0","19","439","439","0","test","10","6","3","30","250","180","false","rigged_win","","","",""
"495","","pre_stim","single-stim-button","150","222399","0.0-10.6-0.6","columbia-card-task-hot","false","0","18","495","495","0","test","10","7","3","30","250","210","false","rigged_win","","","",""
"702","","pre_stim","single-stim-button","151","223103","0.0-10.7-0.7","columbia-card-task-hot","false","0","11","702","702","0","test","10","8","3","30","250","240","false","rigged_win","","","",""
"1246","","pre_stim","single-stim-button","152","224350","0.0-10.8-0.8","columbia-card-task-hot","false","0","12","1246","1246","0","test","10","9","3","30","250","270","false","rigged_win","","","",""
"630","","pre_stim","single-stim-button","153","224982","0.0-10.9-0.9","columbia-card-task-hot","false","0","10","630","630","0","test","10","10","3","30","250","300","false","rigged_win","","","",""
"1791","","pre_stim","single-stim-button","154","226775","0.0-10.10-0.10","columbia-card-task-hot","false","0","17","1791","1791","0","test","10","11","3","30","250","330","false","rigged_win","","","",""
"814","","pre_stim","single-stim-button","155","227591","0.0-10.11-0.11","columbia-card-task-hot","false","0","9","814","814","0","test","10","12","3","30","250","360","false","rigged_win","","","",""
"2286","","pre_stim","single-stim-button","156","229879","0.0-10.12-0.12","columbia-card-task-hot","false","0","26","2286","2286","0","test","10","13","3","30","250","390","false","rigged_win","","","",""
"1350","","pre_stim","single-stim-button","157","231230","0.0-10.13-0.13","columbia-card-task-hot","false","0","turnButton","1350","1350","0","test","10","13","3","30","250","390","false","rigged_win","","","",""
"3415","","pre_stim","single-stim-button","158","234646","0.0-10.14-0.14","columbia-card-task-hot","false","0","collectButton","3415","3415","0","test","10","14","3","30","250","390","false","rigged_win","","","",""
"6999","","pre_stim","single-stim-button","159","241647","0.0-11.0-0.0","columbia-card-task-hot","false","0","16","6999","6999","0","test","11","1","1","10","750","10","false","rigged_win","","","",""
"383","","pre_stim","single-stim-button","160","242031","0.0-11.1-0.1","columbia-card-task-hot","false","0","8","383","383","0","test","11","2","1","10","750","20","false","rigged_win","","","",""
"806","","pre_stim","single-stim-button","161","242839","0.0-11.2-0.2","columbia-card-task-hot","false","0","24","806","806","0","test","11","3","1","10","750","30","false","rigged_win","","","",""
"1151","","pre_stim","single-stim-button","162","243990","0.0-11.3-0.3","columbia-card-task-hot","false","0","32","1151","1151","0","test","11","4","1","10","750","40","false","rigged_win","","","",""
"407","","pre_stim","single-stim-button","163","244399","0.0-11.4-0.4","columbia-card-task-hot","false","0","31","407","407","0","test","11","5","1","10","750","50","false","rigged_win","","","",""
"438","","pre_stim","single-stim-button","164","244838","0.0-11.5-0.5","columbia-card-task-hot","false","0","23","438","438","0","test","11","6","1","10","750","60","false","rigged_win","","","",""
"511","","pre_stim","single-stim-button","165","245350","0.0-11.6-0.6","columbia-card-task-hot","false","0","15","511","511","0","test","11","7","1","10","750","70","false","rigged_win","","","",""
"759","","pre_stim","single-stim-button","166","246110","0.0-11.7-0.7","columbia-card-task-hot","false","0","7","759","759","0","test","11","8","1","10","750","80","false","rigged_win","","","",""
"496","","pre_stim","single-stim-button","167","246607","0.0-11.8-0.8","columbia-card-task-hot","false","0","6","496","496","0","test","11","9","1","10","750","90","false","rigged_win","","","",""
"1094","","pre_stim","single-stim-button","168","247703","0.0-11.9-0.9","columbia-card-task-hot","false","0","14","1094","1094","0","test","11","10","1","10","750","100","false","rigged_win","","","",""
"462","","pre_stim","single-stim-button","169","248167","0.0-11.10-0.10","columbia-card-task-hot","false","0","22","462","462","0","test","11","11","1","10","750","110","false","rigged_win","","","",""
"431","","pre_stim","single-stim-button","170","248599","0.0-11.11-0.11","columbia-card-task-hot","false","0","30","431","431","0","test","11","12","1","10","750","120","false","rigged_win","","","",""
"455","","pre_stim","single-stim-button","171","249055","0.0-11.12-0.12","columbia-card-task-hot","false","0","29","455","455","0","test","11","13","1","10","750","130","false","rigged_win","","","",""
"1927","","pre_stim","single-stim-button","172","250983","0.0-11.13-0.13","columbia-card-task-hot","false","0","28","1927","1927","0","test","11","14","1","10","750","140","false","rigged_win","","","",""
"558","","pre_stim","single-stim-button","173","251542","0.0-11.14-0.14","columbia-card-task-hot","false","0","27","558","558","0","test","11","15","1","10","750","150","false","rigged_win","","","",""
"503","","pre_stim","single-stim-button","174","252047","0.0-11.15-0.15","columbia-card-task-hot","false","0","26","503","503","0","test","11","16","1","10","750","160","false","rigged_win","","","",""
"470","","pre_stim","single-stim-button","175","252518","0.0-11.16-0.16","columbia-card-task-hot","false","0","25","470","470","0","test","11","17","1","10","750","170","false","rigged_win","","","",""
"438","","pre_stim","single-stim-button","176","252959","0.0-11.17-0.17","columbia-card-task-hot","false","0","17","438","438","0","test","11","18","1","10","750","180","false","rigged_win","","","",""
"3014","","pre_stim","single-stim-button","177","255975","0.0-11.18-0.18","columbia-card-task-hot","false","0","1","3014","3014","0","test","11","19","1","10","750","190","false","rigged_win","","","",""
"470","","pre_stim","single-stim-button","178","256447","0.0-11.19-0.19","columbia-card-task-hot","false","0","2","470","470","0","test","11","20","1","10","750","200","false","rigged_win","","","",""
"654","","pre_stim","single-stim-button","179","257102","0.0-11.20-0.20","columbia-card-task-hot","false","0","9","654","654","0","test","11","21","1","10","750","210","false","rigged_win","","","",""
"1527","","pre_stim","single-stim-button","180","258630","0.0-11.21-0.21","columbia-card-task-hot","false","0","turnButton","1527","1527","0","test","11","21","1","10","750","210","false","rigged_win","","","",""
"2943","","pre_stim","single-stim-button","181","261575","0.0-11.22-0.22","columbia-card-task-hot","false","0","collectButton","2943","2943","0","test","11","22","1","10","750","210","false","rigged_win","","","",""
"6910","","pre_stim","single-stim-button","182","268487","0.0-12.0-0.0","columbia-card-task-hot","false","0","32","6910","6910","0","test","12","1","1","30","750","30","false","rigged_win","","","",""
"454","","pre_stim","single-stim-button","183","268942","0.0-12.1-0.1","columbia-card-task-hot","false","0","24","454","454","0","test","12","2","1","30","750","60","false","rigged_win","","","",""
"526","","pre_stim","single-stim-button","184","269471","0.0-12.2-0.2","columbia-card-task-hot","false","0","16","526","526","0","test","12","3","1","30","750","90","false","rigged_win","","","",""
"558","","pre_stim","single-stim-button","185","270031","0.0-12.3-0.3","columbia-card-task-hot","false","0","8","558","558","0","test","12","4","1","30","750","120","false","rigged_win","","","",""
"423","","pre_stim","single-stim-button","186","270455","0.0-12.4-0.4","columbia-card-task-hot","false","0","7","423","423","0","test","12","5","1","30","750","150","false","rigged_win","","","",""
"454","","pre_stim","single-stim-button","187","270911","0.0-12.5-0.5","columbia-card-task-hot","false","0","15","454","454","0","test","12","6","1","30","750","180","false","rigged_win","","","",""
"983","","pre_stim","single-stim-button","188","271894","0.0-12.6-0.6","columbia-card-task-hot","false","0","31","983","983","0","test","12","7","1","30","750","210","false","rigged_win","","","",""
"398","","pre_stim","single-stim-button","189","272294","0.0-12.7-0.7","columbia-card-task-hot","false","0","23","398","398","0","test","12","8","1","30","750","240","false","rigged_win","","","",""
"535","","pre_stim","single-stim-button","190","272830","0.0-12.8-0.8","columbia-card-task-hot","false","0","30","535","535","0","test","12","9","1","30","750","270","false","rigged_win","","","",""
"479","","pre_stim","single-stim-button","191","273311","0.0-12.9-0.9","columbia-card-task-hot","false","0","22","479","479","0","test","12","10","1","30","750","300","false","rigged_win","","","",""
"934","","pre_stim","single-stim-button","192","274246","0.0-12.10-0.10","columbia-card-task-hot","false","0","6","934","934","0","test","12","11","1","30","750","330","false","rigged_win","","","",""
"415","","pre_stim","single-stim-button","193","274663","0.0-12.11-0.11","columbia-card-task-hot","false","0","14","415","415","0","test","12","12","1","30","750","360","false","rigged_win","","","",""
"542","","pre_stim","single-stim-button","194","275207","0.0-12.12-0.12","columbia-card-task-hot","false","0","5","542","542","0","test","12","13","1","30","750","390","false","rigged_win","","","",""
"446","","pre_stim","single-stim-button","195","275655","0.0-12.13-0.13","columbia-card-task-hot","false","0","13","446","446","0","test","12","14","1","30","750","420","false","rigged_win","","","",""
"510","","pre_stim","single-stim-button","196","276166","0.0-12.14-0.14","columbia-card-task-hot","false","0","21","510","510","0","test","12","15","1","30","750","450","false","rigged_win","","","",""
"615","","pre_stim","single-stim-button","197","276783","0.0-12.15-0.15","columbia-card-task-hot","false","0","29","615","615","0","test","12","16","1","30","750","480","false","rigged_win","","","",""
"1478","","pre_stim","single-stim-button","198","278263","0.0-12.16-0.16","columbia-card-task-hot","false","0","4","1478","1478","0","test","12","17","1","30","750","510","false","rigged_win","","","",""
"1230","","pre_stim","single-stim-button","199","279495","0.0-12.17-0.17","columbia-card-task-hot","false","0","3","1230","1230","0","test","12","18","1","30","750","540","false","rigged_win","","","",""
"598","","pre_stim","single-stim-button","200","280095","0.0-12.18-0.18","columbia-card-task-hot","false","0","11","598","598","0","test","12","19","1","30","750","570","false","rigged_win","","","",""
"694","","pre_stim","single-stim-button","201","280791","0.0-12.19-0.19","columbia-card-task-hot","false","0","12","694","694","0","test","12","20","1","30","750","600","false","rigged_win","","","",""
"1248","","pre_stim","single-stim-button","202","282039","0.0-12.20-0.20","columbia-card-task-hot","false","0","turnButton","1248","1248","0","test","12","20","1","30","750","600","false","rigged_win","","","",""
"3325","","pre_stim","single-stim-button","203","285366","0.0-12.21-0.21","columbia-card-task-hot","false","0","collectButton","3325","3325","0","test","12","21","1","30","750","600","false","rigged_win","","","",""
"6999","","pre_stim","single-stim-button","204","292367","0.0-13.0-0.0","columbia-card-task-hot","false","0","15","6999","6999","0","test","13","1","3","10","250","10","false","rigged_loss","","","",""
"406","","pre_stim","single-stim-button","205","292774","0.0-13.1-0.1","columbia-card-task-hot","false","0","23","406","406","0","test","13","2","3","10","250","20","false","rigged_loss","","","",""
"343","","pre_stim","single-stim-button","206","293118","0.0-13.2-0.2","columbia-card-task-hot","false","0","24","343","343","0","test","13","3","3","10","250","30","false","rigged_loss","","","",""
"319","","pre_stim","single-stim-button","207","293438","0.0-13.3-0.3","columbia-card-task-hot","false","0","16","319","319","0","test","13","4","3","10","250","40","false","rigged_loss","","","",""
"534","","pre_stim","single-stim-button","208","293974","0.0-13.4-0.4","columbia-card-task-hot","false","0","32","534","534","0","test","13","5","3","10","250","50","false","rigged_loss","","","",""
"351","","pre_stim","single-stim-button","209","294327","0.0-13.5-0.5","columbia-card-task-hot","false","0","31","351","351","0","test","13","6","3","10","250","60","false","rigged_loss","","","",""
"766","","pre_stim","single-stim-button","210","295095","0.0-13.6-0.6","columbia-card-task-hot","false","0","22","766","766","0","test","13","7","3","10","250","70","false","rigged_loss","","","",""
"358","","pre_stim","single-stim-button","211","295455","0.0-13.7-0.7","columbia-card-task-hot","false","0","30","358","358","0","test","13","8","3","10","250","80","false","rigged_loss","","","",""
"654","","pre_stim","single-stim-button","212","296111","0.0-13.8-0.8","columbia-card-task-hot","false","0","21","654","654","0","test","13","9","3","10","250","-170","true","rigged_loss","","","",""
"3094","","pre_stim","single-stim-button","213","299207","0.0-13.9-0.9","columbia-card-task-hot","false","0","collectButton","3094","3094","0","test","13","10","3","10","250","-170","true","rigged_loss","","","",""
"8014","","pre_stim","single-stim-button","214","307223","0.0-14.0-0.0","columbia-card-task-hot","false","0","15","8014","8014","0","test","14","1","3","30","750","30","false","rigged_win","","","",""
"1238","","pre_stim","single-stim-button","215","308463","0.0-14.1-0.1","columbia-card-task-hot","false","0","23","1238","1238","0","test","14","2","3","30","750","60","false","rigged_win","","","",""
"774","","pre_stim","single-stim-button","216","309238","0.0-14.2-0.2","columbia-card-task-hot","false","0","22","774","774","0","test","14","3","3","30","750","90","false","rigged_win","","","",""
"622","","pre_stim","single-stim-button","217","309863","0.0-14.3-0.3","columbia-card-task-hot","false","0","21","622","622","0","test","14","4","3","30","750","120","false","rigged_win","","","",""
"982","","pre_stim","single-stim-button","218","310847","0.0-14.4-0.4","columbia-card-task-hot","false","0","20","982","982","0","test","14","5","3","30","750","150","false","rigged_win","","","",""
"3526","","pre_stim","single-stim-button","219","314374","0.0-14.5-0.5","columbia-card-task-hot","false","0","26","3526","3526","0","test","14","6","3","30","750","180","false","rigged_win","","","",""
"711","","pre_stim","single-stim-button","220","315087","0.0-14.6-0.6","columbia-card-task-hot","false","0","27","711","711","0","test","14","7","3","30","750","210","false","rigged_win","","","",""
"1446","","pre_stim","single-stim-button","221","316535","0.0-14.7-0.7","columbia-card-task-hot","false","0","30","1446","1446","0","test","14","8","3","30","750","240","false","rigged_win","","","",""
"2502","","pre_stim","single-stim-button","222","319039","0.0-14.8-0.8","columbia-card-task-hot","false","0","turnButton","2502","2502","0","test","14","8","3","30","750","240","false","rigged_win","","","",""
"3014","","pre_stim","single-stim-button","223","322055","0.0-14.9-0.9","columbia-card-task-hot","false","0","collectButton","3014","3014","0","test","14","9","3","30","750","240","false","rigged_win","","","",""
"7694","","pre_stim","single-stim-button","224","329751","0.0-15.0-0.0","columbia-card-task-hot","false","0","9","7694","7694","0","test","15","1","1","10","750","10","false","rigged_loss","","","",""
"382","","pre_stim","single-stim-button","225","330135","0.0-15.1-0.1","columbia-card-task-hot","false","0","10","382","382","0","test","15","2","1","10","750","20","false","rigged_loss","","","",""
"934","","pre_stim","single-stim-button","226","331071","0.0-15.2-0.2","columbia-card-task-hot","false","0","17","934","934","0","test","15","3","1","10","750","-730","true","rigged_loss","","","",""
"3270","","pre_stim","single-stim-button","227","334343","0.0-15.3-0.3","columbia-card-task-hot","false","0","collectButton","3270","3270","0","test","15","4","1","10","750","-730","true","rigged_loss","","","",""
"6535","","pre_stim","single-stim-button","228","340879","0.0-16.0-0.0","columbia-card-task-hot","false","0","8","6535","6535","0","test","16","1","1","10","250","10","false","rigged_win","","","",""
"878","","pre_stim","single-stim-button","229","341759","0.0-16.1-0.1","columbia-card-task-hot","false","0","16","878","878","0","test","16","2","1","10","250","20","false","rigged_win","","","",""
"653","","pre_stim","single-stim-button","230","342414","0.0-16.2-0.2","columbia-card-task-hot","false","0","15","653","653","0","test","16","3","1","10","250","30","false","rigged_win","","","",""
"1375","","pre_stim","single-stim-button","231","343790","0.0-16.3-0.3","columbia-card-task-hot","false","0","23","1375","1375","0","test","16","4","1","10","250","40","false","rigged_win","","","",""
"510","","pre_stim","single-stim-button","232","344303","0.0-16.4-0.4","columbia-card-task-hot","false","0","24","510","510","0","test","16","5","1","10","250","50","false","rigged_win","","","",""
"638","","pre_stim","single-stim-button","233","344942","0.0-16.5-0.5","columbia-card-task-hot","false","0","32","638","638","0","test","16","6","1","10","250","60","false","rigged_win","","","",""
"478","","pre_stim","single-stim-button","234","345422","0.0-16.6-0.6","columbia-card-task-hot","false","0","31","478","478","0","test","16","7","1","10","250","70","false","rigged_win","","","",""
"598","","pre_stim","single-stim-button","235","346023","0.0-16.7-0.7","columbia-card-task-hot","false","0","30","598","598","0","test","16","8","1","10","250","80","false","rigged_win","","","",""
"486","","pre_stim","single-stim-button","236","346511","0.0-16.8-0.8","columbia-card-task-hot","false","0","22","486","486","0","test","16","9","1","10","250","90","false","rigged_win","","","",""
"446","","pre_stim","single-stim-button","237","346959","0.0-16.9-0.9","columbia-card-task-hot","false","0","21","446","446","0","test","16","10","1","10","250","100","false","rigged_win","","","",""
"518","","pre_stim","single-stim-button","238","347479","0.0-16.10-0.10","columbia-card-task-hot","false","0","29","518","518","0","test","16","11","1","10","250","110","false","rigged_win","","","",""
"566","","pre_stim","single-stim-button","239","348047","0.0-16.11-0.11","columbia-card-task-hot","false","0","13","566","566","0","test","16","12","1","10","250","120","false","rigged_win","","","",""
"302","","pre_stim","single-stim-button","240","348351","0.0-16.12-0.12","columbia-card-task-hot","false","0","14","302","302","0","test","16","13","1","10","250","130","false","rigged_win","","","",""
"3006","","pre_stim","single-stim-button","241","351359","0.0-16.13-0.13","columbia-card-task-hot","false","0","5","3006","3006","0","test","16","14","1","10","250","140","false","rigged_win","","","",""
"342","","pre_stim","single-stim-button","242","351702","0.0-16.14-0.14","columbia-card-task-hot","false","0","4","342","342","0","test","16","15","1","10","250","150","false","rigged_win","","","",""
"2343","","pre_stim","single-stim-button","243","354047","0.0-16.15-0.15","columbia-card-task-hot","false","0","turnButton","2343","2343","0","test","16","15","1","10","250","150","false","rigged_win","","","",""
"3238","","pre_stim","single-stim-button","244","357287","0.0-16.16-0.16","columbia-card-task-hot","false","0","collectButton","3238","3238","0","test","16","16","1","10","250","150","false","rigged_win","","","",""
"7998","","pre_stim","single-stim-button","245","365287","0.0-17.0-0.0","columbia-card-task-hot","false","0","21","7998","7998","0","test","17","1","3","30","750","30","false","rigged_loss","","","",""
"366","","pre_stim","single-stim-button","246","365654","0.0-17.1-0.1","columbia-card-task-hot","false","0","13","366","366","0","test","17","2","3","30","750","60","false","rigged_loss","","","",""
"630","","pre_stim","single-stim-button","247","366287","0.0-17.2-0.2","columbia-card-task-hot","false","0","29","630","630","0","test","17","3","3","30","750","90","false","rigged_loss","","","",""
"1238","","pre_stim","single-stim-button","248","367526","0.0-17.3-0.3","columbia-card-task-hot","false","0","25","1238","1238","0","test","17","4","3","30","750","120","false","rigged_loss","","","",""
"559","","pre_stim","single-stim-button","249","368087","0.0-17.4-0.4","columbia-card-task-hot","false","0","26","559","559","0","test","17","5","3","30","750","150","false","rigged_loss","","","",""
"518","","pre_stim","single-stim-button","250","368607","0.0-17.5-0.5","columbia-card-task-hot","false","0","27","518","518","0","test","17","6","3","30","750","180","false","rigged_loss","","","",""
"1518","","pre_stim","single-stim-button","251","370127","0.0-17.6-0.6","columbia-card-task-hot","false","0","9","1518","1518","0","test","17","7","3","30","750","-570","true","rigged_loss","","","",""
"4270","","pre_stim","single-stim-button","252","374398","0.0-17.7-0.7","columbia-card-task-hot","false","0","collectButton","4270","4270","0","test","17","8","3","30","750","-570","true","rigged_loss","","","",""
"6702","","pre_stim","single-stim-button","253","381103","0.0-18.0-0.0","columbia-card-task-hot","false","0","26","6702","6702","0","test","18","1","1","30","250","30","false","rigged_win","","","",""
"470","","pre_stim","single-stim-button","254","381575","0.0-18.1-0.1","columbia-card-task-hot","false","0","27","470","470","0","test","18","2","1","30","250","60","false","rigged_win","","","",""
"454","","pre_stim","single-stim-button","255","382031","0.0-18.2-0.2","columbia-card-task-hot","false","0","28","454","454","0","test","18","3","1","30","250","90","false","rigged_win","","","",""
"454","","pre_stim","single-stim-button","256","382487","0.0-18.3-0.3","columbia-card-task-hot","false","0","29","454","454","0","test","18","4","1","30","250","120","false","rigged_win","","","",""
"470","","pre_stim","single-stim-button","257","382959","0.0-18.4-0.4","columbia-card-task-hot","false","0","30","470","470","0","test","18","5","1","30","250","150","false","rigged_win","","","",""
"486","","pre_stim","single-stim-button","258","383447","0.0-18.5-0.5","columbia-card-task-hot","false","0","31","486","486","0","test","18","6","1","30","250","180","false","rigged_win","","","",""
"462","","pre_stim","single-stim-button","259","383910","0.0-18.6-0.6","columbia-card-task-hot","false","0","32","462","462","0","test","18","7","1","30","250","210","false","rigged_win","","","",""
"1158","","pre_stim","single-stim-button","260","385071","0.0-18.7-0.7","columbia-card-task-hot","false","0","24","1158","1158","0","test","18","8","1","30","250","240","false","rigged_win","","","",""
"1070","","pre_stim","single-stim-button","261","386142","0.0-18.8-0.8","columbia-card-task-hot","false","0","23","1070","1070","0","test","18","9","1","30","250","270","false","rigged_win","","","",""
"486","","pre_stim","single-stim-button","262","386630","0.0-18.9-0.9","columbia-card-task-hot","false","0","22","486","486","0","test","18","10","1","30","250","300","false","rigged_win","","","",""
"470","","pre_stim","single-stim-button","263","387103","0.0-18.10-0.10","columbia-card-task-hot","false","0","21","470","470","0","test","18","11","1","30","250","330","false","rigged_win","","","",""
"1310","","pre_stim","single-stim-button","264","388414","0.0-18.11-0.11","columbia-card-task-hot","false","0","20","1310","1310","0","test","18","12","1","30","250","360","false","rigged_win","","","",""
"574","","pre_stim","single-stim-button","265","388991","0.0-18.12-0.12","columbia-card-task-hot","false","0","19","574","574","0","test","18","13","1","30","250","390","false","rigged_win","","","",""
"590","","pre_stim","single-stim-button","266","389583","0.0-18.13-0.13","columbia-card-task-hot","false","0","18","590","590","0","test","18","14","1","30","250","420","false","rigged_win","","","",""
"598","","pre_stim","single-stim-button","267","390183","0.0-18.14-0.14","columbia-card-task-hot","false","0","10","598","598","0","test","18","15","1","30","250","450","false","rigged_win","","","",""
"1222","","pre_stim","single-stim-button","268","391407","0.0-18.15-0.15","columbia-card-task-hot","false","0","11","1222","1222","0","test","18","16","1","30","250","480","false","rigged_win","","","",""
"438","","pre_stim","single-stim-button","269","391846","0.0-18.16-0.16","columbia-card-task-hot","false","0","12","438","438","0","test","18","17","1","30","250","510","false","rigged_win","","","",""
"478","","pre_stim","single-stim-button","270","392326","0.0-18.17-0.17","columbia-card-task-hot","false","0","13","478","478","0","test","18","18","1","30","250","540","false","rigged_win","","","",""
"478","","pre_stim","single-stim-button","271","392807","0.0-18.18-0.18","columbia-card-task-hot","false","0","14","478","478","0","test","18","19","1","30","250","570","false","rigged_win","","","",""
"2094","","pre_stim","single-stim-button","272","394903","0.0-18.19-0.19","columbia-card-task-hot","false","0","15","2094","2094","0","test","18","20","1","30","250","600","false","rigged_win","","","",""
"766","","pre_stim","single-stim-button","273","395671","0.0-18.20-0.20","columbia-card-task-hot","false","0","16","766","766","0","test","18","21","1","30","250","630","false","rigged_win","","","",""
"550","","pre_stim","single-stim-button","274","396223","0.0-18.21-0.21","columbia-card-task-hot","false","0","8","550","550","0","test","18","22","1","30","250","660","false","rigged_win","","","",""
"645","","pre_stim","single-stim-button","275","396870","0.0-18.22-0.22","columbia-card-task-hot","false","0","7","645","645","0","test","18","23","1","30","250","690","false","rigged_win","","","",""
"622","","pre_stim","single-stim-button","276","397495","0.0-18.23-0.23","columbia-card-task-hot","false","0","6","622","622","0","test","18","24","1","30","250","720","false","rigged_win","","","",""
"926","","pre_stim","single-stim-button","277","398423","0.0-18.24-0.24","columbia-card-task-hot","false","0","5","926","926","0","test","18","25","1","30","250","750","false","rigged_win","","","",""
"750","","pre_stim","single-stim-button","278","399174","0.0-18.25-0.25","columbia-card-task-hot","false","0","4","750","750","0","test","18","26","1","30","250","780","false","rigged_win","","","",""
"902","","pre_stim","single-stim-button","279","400079","0.0-18.26-0.26","columbia-card-task-hot","false","0","3","902","902","0","test","18","27","1","30","250","810","false","rigged_win","","","",""
"830","","pre_stim","single-stim-button","280","400911","0.0-18.27-0.27","columbia-card-task-hot","false","0","2","830","830","0","test","18","28","1","30","250","840","false","rigged_win","","","",""
"2022","","pre_stim","single-stim-button","281","402934","0.0-18.28-0.28","columbia-card-task-hot","false","0","turnButton","2022","2022","0","test","18","28","1","30","250","840","false","rigged_win","","","",""
"3718","","pre_stim","single-stim-button","282","406655","0.0-18.29-0.29","columbia-card-task-hot","false","0","collectButton","3718","3718","0","test","18","29","1","30","250","840","false","rigged_win","","","",""
"6366","","pre_stim","single-stim-button","283","413023","0.0-19.0-0.0","columbia-card-task-hot","false","0","32","6366","6366","0","test","19","1","3","30","250","30","false","rigged_win","","","",""
"774","","pre_stim","single-stim-button","284","413799","0.0-19.1-0.1","columbia-card-task-hot","false","0","25","774","774","0","test","19","2","3","30","250","60","false","rigged_win","","","",""
"1094","","pre_stim","single-stim-button","285","414895","0.0-19.2-0.2","columbia-card-task-hot","false","0","1","1094","1094","0","test","19","3","3","30","250","90","false","rigged_win","","","",""
"382","","pre_stim","single-stim-button","286","415279","0.0-19.3-0.3","columbia-card-task-hot","false","0","9","382","382","0","test","19","4","3","30","250","120","false","rigged_win","","","",""
"518","","pre_stim","single-stim-button","287","415799","0.0-19.4-0.4","columbia-card-task-hot","false","0","10","518","518","0","test","19","5","3","30","250","150","false","rigged_win","","","",""
"981","","pre_stim","single-stim-button","288","416783","0.0-19.5-0.5","columbia-card-task-hot","false","0","4","981","981","0","test","19","6","3","30","250","180","false","rigged_win","","","",""
"1558","","pre_stim","single-stim-button","289","418343","0.0-19.6-0.6","columbia-card-task-hot","false","0","6","1558","1558","0","test","19","7","3","30","250","210","false","rigged_win","","","",""
"3445","","pre_stim","single-stim-button","290","421790","0.0-19.7-0.7","columbia-card-task-hot","false","0","turnButton","3445","3445","0","test","19","7","3","30","250","210","false","rigged_win","","","",""
"3831","","pre_stim","single-stim-button","291","425622","0.0-19.8-0.8","columbia-card-task-hot","false","0","collectButton","3831","3831","0","test","19","8","3","30","250","210","false","rigged_win","","","",""
"7726","","pre_stim","single-stim-button","292","433350","0.0-20.0-0.0","columbia-card-task-hot","false","0","3","7726","7726","0","test","20","1","3","30","750","30","false","rigged_loss","","","",""
"453","","pre_stim","single-stim-button","293","433806","0.0-20.1-0.1","columbia-card-task-hot","false","0","11","453","453","0","test","20","2","3","30","750","60","false","rigged_loss","","","",""
"454","","pre_stim","single-stim-button","294","434262","0.0-20.2-0.2","columbia-card-task-hot","false","0","12","454","454","0","test","20","3","3","30","750","90","false","rigged_loss","","","",""
"919","","pre_stim","single-stim-button","295","435182","0.0-20.3-0.3","columbia-card-task-hot","false","0","5","919","919","0","test","20","4","3","30","750","120","false","rigged_loss","","","",""
"446","","pre_stim","single-stim-button","296","435630","0.0-20.4-0.4","columbia-card-task-hot","false","0","13","446","446","0","test","20","5","3","30","750","150","false","rigged_loss","","","",""
"477","","pre_stim","single-stim-button","297","436110","0.0-20.5-0.5","columbia-card-task-hot","false","0","6","477","477","0","test","20","6","3","30","750","180","false","rigged_loss","","","",""
"1150","","pre_stim","single-stim-button","298","437262","0.0-20.6-0.6","columbia-card-task-hot","false","0","14","1150","1150","0","test","20","7","3","30","750","210","false","rigged_loss","","","",""
"2958","","pre_stim","single-stim-button","299","440223","0.0-20.7-0.7","columbia-card-task-hot","false","0","turnButton","2958","2958","0","test","20","7","3","30","750","210","false","rigged_loss","","","",""
"3030","","pre_stim","single-stim-button","300","443254","0.0-20.8-0.8","columbia-card-task-hot","false","0","collectButton","3030","3030","0","test","20","8","3","30","750","210","false","rigged_loss","","","",""
"11342","{""Q0"":""Karten aufdecken"",""Q1"":""keine""}","post task questions","survey-text","301","454598","0.0-21.0","columbia-card-task-hot","false","0","","","","","","","","","","","","","","true","0","",""
"7863","","","poldrack-text","302","463479","0.0-22.0","columbia-card-task-hot","false","0","","","7863","1000","","","","","","","","","","","","<div class = centerbox><p class = center-block-text>Finished with this task.</p></div>","17"
