"rt","responses","trial_id","trial_type","trial_index","time_elapsed","internal_node_id","exp_id","full_screen","focus_shifts","mouse_click","stim_duration","block_duration","timing_post_trial","exp_stage","which_round","num_click_in_round","num_loss_cards","gain_amount","loss_amount","round_points","clicked_on_loss_card","round_type","credit_var","performance_var","text","key_press"
"13008","{""Q0"":""-p0T1""}","pre task questions","survey-text","0","13011","0.0-0.0","columbia-card-task-hot","false","0","","","","","","","","","","","","","","","","",""
"6414","","pre_stim","single-stim-button","1","20427","0.0-1.0-0.0","columbia-card-task-hot","false","0","4","6414","6414","0","test","1","1","1","30","250","30","false","rigged_loss","","","",""
"1022","","pre_stim","single-stim-button","2","21450","0.0-1.1-0.1","columbia-card-task-hot","false","0","27","1022","1022","0","test","1","2","1","30","250","60","false","rigged_loss","","","",""
"431","","pre_stim","single-stim-button","3","21882","0.0-1.2-0.2","columbia-card-task-hot","false","0","19","431","431","0","test","1","3","1","30","250","90","false","rigged_loss","","","",""
"935","","pre_stim","single-stim-button","4","22818","0.0-1.3-0.3","columbia-card-task-hot","false","0","10","935","935","0","test","1","4","1","30","250","120","false","rigged_loss","","","",""
"927","","pre_stim","single-stim-button","5","23746","0.0-1.4-0.4","columbia-card-task-hot","false","0","23","927","927","0","test","1","5","1","30","250","150","false","rigged_loss","","","",""
"407","","pre_stim","single-stim-button","6","24154","0.0-1.5-0.5","columbia-card-task-hot","false","0","24","407","407","0","test","1","6","1","30","250","180","false","rigged_loss","","","",""
"775","","pre_stim","single-stim-button","7","24930","0.0-1.6-0.6","columbia-card-task-hot","false","0","30","775","775","0","test","1","7","1","30","250","210","false","rigged_loss","","","",""
"1127","","pre_stim","single-stim-button","8","26058","0.0-1.7-0.7","columbia-card-task-hot","false","0","15","1127","1127","0","test","1","8","1","30","250","240","false","rigged_loss","","","",""
"687","","pre_stim","single-stim-button","9","26746","0.0-1.8-0.8","columbia-card-task-hot","false","0","7","687","687","0","test","1","9","1","30","250","270","false","rigged_loss","","","",""
"2415","","pre_stim","single-stim-button","10","29162","0.0-1.9-0.9","columbia-card-task-hot","false","0","turnButton","2415","2415","0","test","1","9","1","30","250","270","false","rigged_loss","","","",""
"1606","","pre_stim","single-stim-button","11","30770","0.0-1.10-0.10","columbia-card-task-hot","false","0","collectButton","1606","1606","0","test","1","10","1","30","250","270","false","rigged_loss","","","",""
"7335","","pre_stim","single-stim-button","12","38106","0.0-2.0-0.0","columbia-card-task-hot","false","0","4","7335","7335","0","test","2","1","1","10","750","10","false","rigged_win","","","",""
"663","","pre_stim","single-stim-button","13","38770","0.0-2.1-0.1","columbia-card-task-hot","false","0","13","663","663","0","test","2","2","1","10","750","20","false","rigged_win","","","",""
"1231","","pre_stim","single-stim-button","14","40002","0.0-2.2-0.2","columbia-card-task-hot","false","0","19","1231","1231","0","test","2","3","1","10","750","30","false","rigged_win","","","",""
"631","","pre_stim","single-stim-button","15","40634","0.0-2.3-0.3","columbia-card-task-hot","false","0","10","631","631","0","test","2","4","1","10","750","40","false","rigged_win","","","",""
"1383","","pre_stim","single-stim-button","16","42018","0.0-2.4-0.4","columbia-card-task-hot","false","0","25","1383","1383","0","test","2","5","1","10","750","50","false","rigged_win","","","",""
"606","","pre_stim","single-stim-button","17","42626","0.0-2.5-0.5","columbia-card-task-hot","false","0","28","606","606","0","test","2","6","1","10","750","60","false","rigged_win","","","",""
"791","","pre_stim","single-stim-button","18","43418","0.0-2.6-0.6","columbia-card-task-hot","false","0","21","791","791","0","test","2","7","1","10","750","70","false","rigged_win","","","",""
"751","","pre_stim","single-stim-button","19","44170","0.0-2.7-0.7","columbia-card-task-hot","false","0","24","751","751","0","test","2","8","1","10","750","80","false","rigged_win","","","",""
"439","","pre_stim","single-stim-button","20","44610","0.0-2.8-0.8","columbia-card-task-hot","false","0","16","439","439","0","test","2","9","1","10","750","90","false","rigged_win","","","",""
"487","","pre_stim","single-stim-button","21","45098","0.0-2.9-0.9","columbia-card-task-hot","false","0","8","487","487","0","test","2","10","1","10","750","100","false","rigged_win","","","",""
"823","","pre_stim","single-stim-button","22","45921","0.0-2.10-0.10","columbia-card-task-hot","false","0","6","823","823","0","test","2","11","1","10","750","110","false","rigged_win","","","",""
"1511","","pre_stim","single-stim-button","23","47434","0.0-2.11-0.11","columbia-card-task-hot","false","0","turnButton","1511","1511","0","test","2","11","1","10","750","110","false","rigged_win","","","",""
"4382","","pre_stim","single-stim-button","24","51818","0.0-2.12-0.12","columbia-card-task-hot","false","0","collectButton","4382","4382","0","test","2","12","1","10","750","110","false","rigged_win","","","",""
"8447","","pre_stim","single-stim-button","25","60265","0.0-3.0-0.0","columbia-card-task-hot","false","0","23","8447","8447","0","test","3","1","3","10","750","10","false","rigged_win","","","",""
"1935","","pre_stim","single-stim-button","26","62202","0.0-3.1-0.1","columbia-card-task-hot","false","0","20","1935","1935","0","test","3","2","3","10","750","20","false","rigged_win","","","",""
"1223","","pre_stim","single-stim-button","27","63426","0.0-3.2-0.2","columbia-card-task-hot","false","0","4","1223","1223","0","test","3","3","3","10","750","30","false","rigged_win","","","",""
"687","","pre_stim","single-stim-button","28","64114","0.0-3.3-0.3","columbia-card-task-hot","false","0","6","687","687","0","test","3","4","3","10","750","40","false","rigged_win","","","",""
"591","","pre_stim","single-stim-button","29","64705","0.0-3.4-0.4","columbia-card-task-hot","false","0","13","591","591","0","test","3","5","3","10","750","50","false","rigged_win","","","",""
"1127","","pre_stim","single-stim-button","30","65834","0.0-3.5-0.5","columbia-card-task-hot","false","0","16","1127","1127","0","test","3","6","3","10","750","60","false","rigged_win","","","",""
"663","","pre_stim","single-stim-button","31","66497","0.0-3.6-0.6","columbia-card-task-hot","false","0","32","663","663","0","test","3","7","3","10","750","70","false","rigged_win","","","",""
"960","","pre_stim","single-stim-button","32","67458","0.0-3.7-0.7","columbia-card-task-hot","false","0","18","960","960","0","test","3","8","3","10","750","80","false","rigged_win","","","",""
"2103","","pre_stim","single-stim-button","33","69562","0.0-3.8-0.8","columbia-card-task-hot","false","0","turnButton","2103","2103","0","test","3","8","3","10","750","80","false","rigged_win","","","",""
"3455","","pre_stim","single-stim-button","34","73017","0.0-3.9-0.9","columbia-card-task-hot","false","0","collectButton","3455","3455","0","test","3","9","3","10","750","80","false","rigged_win","","","",""
"7663","","pre_stim","single-stim-button","35","80682","0.0-4.0-0.0","columbia-card-task-hot","false","0","8","7663","7663","0","test","4","1","3","10","750","10","false","rigged_loss","","","",""
"1055","","pre_stim","single-stim-button","36","81737","0.0-4.1-0.1","columbia-card-task-hot","false","0","25","1055","1055","0","test","4","2","3","10","750","20","false","rigged_loss","","","",""
"976","","pre_stim","single-stim-button","37","82713","0.0-4.2-0.2","columbia-card-task-hot","false","0","32","976","976","0","test","4","3","3","10","750","30","false","rigged_loss","","","",""
"960","","pre_stim","single-stim-button","38","83674","0.0-4.3-0.3","columbia-card-task-hot","false","0","1","960","960","0","test","4","4","3","10","750","-720","true","rigged_loss","","","",""
"4327","","pre_stim","single-stim-button","39","88002","0.0-4.4-0.4","columbia-card-task-hot","false","0","collectButton","4327","4327","0","test","4","5","3","10","750","-720","true","rigged_loss","","","",""
"9119","","pre_stim","single-stim-button","40","97122","0.0-5.0-0.0","columbia-card-task-hot","false","0","7","9119","9119","0","test","5","1","1","30","750","30","false","rigged_win","","","",""
"423","","pre_stim","single-stim-button","41","97546","0.0-5.1-0.1","columbia-card-task-hot","false","0","15","423","423","0","test","5","2","1","30","750","60","false","rigged_win","","","",""
"847","","pre_stim","single-stim-button","42","98393","0.0-5.2-0.2","columbia-card-task-hot","false","0","31","847","847","0","test","5","3","1","30","750","90","false","rigged_win","","","",""
"472","","pre_stim","single-stim-button","43","98866","0.0-5.3-0.3","columbia-card-task-hot","false","0","23","472","472","0","test","5","4","1","30","750","120","false","rigged_win","","","",""
"735","","pre_stim","single-stim-button","44","99602","0.0-5.4-0.4","columbia-card-task-hot","false","0","30","735","735","0","test","5","5","1","30","750","150","false","rigged_win","","","",""
"430","","pre_stim","single-stim-button","45","100034","0.0-5.5-0.5","columbia-card-task-hot","false","0","22","430","430","0","test","5","6","1","30","750","180","false","rigged_win","","","",""
"503","","pre_stim","single-stim-button","46","100537","0.0-5.6-0.6","columbia-card-task-hot","false","0","14","503","503","0","test","5","7","1","30","750","210","false","rigged_win","","","",""
"471","","pre_stim","single-stim-button","47","101010","0.0-5.7-0.7","columbia-card-task-hot","false","0","6","471","471","0","test","5","8","1","30","750","240","false","rigged_win","","","",""
"1439","","pre_stim","single-stim-button","48","102450","0.0-5.8-0.8","columbia-card-task-hot","false","0","13","1439","1439","0","test","5","9","1","30","750","270","false","rigged_win","","","",""
"1406","","pre_stim","single-stim-button","49","103857","0.0-5.9-0.9","columbia-card-task-hot","false","0","turnButton","1406","1406","0","test","5","9","1","30","750","270","false","rigged_win","","","",""
"3479","","pre_stim","single-stim-button","50","107337","0.0-5.10-0.10","columbia-card-task-hot","false","0","collectButton","3479","3479","0","test","5","10","1","30","750","270","false","rigged_win","","","",""
"8447","","pre_stim","single-stim-button","51","115786","0.0-6.0-0.0","columbia-card-task-hot","false","0","12","8447","8447","0","test","6","1","3","10","250","10","false","rigged_loss","","","",""
"1551","","pre_stim","single-stim-button","52","117337","0.0-6.1-0.1","columbia-card-task-hot","false","0","21","1551","1551","0","test","6","2","3","10","250","20","false","rigged_loss","","","",""
"663","","pre_stim","single-stim-button","53","118002","0.0-6.2-0.2","columbia-card-task-hot","false","0","30","663","663","0","test","6","3","3","10","250","30","false","rigged_loss","","","",""
"1341","","pre_stim","single-stim-button","54","119344","0.0-6.3-0.3","columbia-card-task-hot","false","0","3","1341","1341","0","test","6","4","3","10","250","40","false","rigged_loss","","","",""
"1295","","pre_stim","single-stim-button","55","120640","0.0-6.4-0.4","columbia-card-task-hot","false","0","2","1295","1295","0","test","6","5","3","10","250","50","false","rigged_loss","","","",""
"536","","pre_stim","single-stim-button","56","121176","0.0-6.5-0.5","columbia-card-task-hot","false","0","11","536","536","0","test","6","6","3","10","250","60","false","rigged_loss","","","",""
"582","","pre_stim","single-stim-button","57","121760","0.0-6.6-0.6","columbia-card-task-hot","false","0","20","582","582","0","test","6","7","3","10","250","70","false","rigged_loss","","","",""
"670","","pre_stim","single-stim-button","58","122432","0.0-6.7-0.7","columbia-card-task-hot","false","0","29","670","670","0","test","6","8","3","10","250","80","false","rigged_loss","","","",""
"951","","pre_stim","single-stim-button","59","123384","0.0-6.8-0.8","columbia-card-task-hot","false","0","22","951","951","0","test","6","9","3","10","250","90","false","rigged_loss","","","",""
"2535","","pre_stim","single-stim-button","60","125920","0.0-6.9-0.9","columbia-card-task-hot","false","0","turnButton","2535","2535","0","test","6","9","3","10","250","90","false","rigged_loss","","","",""
"4014","","pre_stim","single-stim-button","61","129936","0.0-6.10-0.10","columbia-card-task-hot","false","0","collectButton","4014","4014","0","test","6","10","3","10","250","90","false","rigged_loss","","","",""
"9071","","pre_stim","single-stim-button","62","139008","0.0-7.0-0.0","columbia-card-task-hot","false","0","23","9071","9071","0","test","7","1","3","30","250","30","false","rigged_win","","","",""
"598","","pre_stim","single-stim-button","63","139608","0.0-7.1-0.1","columbia-card-task-hot","false","0","15","598","598","0","test","7","2","3","30","250","60","false","rigged_win","","","",""
"545","","pre_stim","single-stim-button","64","140153","0.0-7.2-0.2","columbia-card-task-hot","false","0","14","545","545","0","test","7","3","3","30","250","90","false","rigged_win","","","",""
"549","","pre_stim","single-stim-button","65","140704","0.0-7.3-0.3","columbia-card-task-hot","false","0","22","549","549","0","test","7","4","3","30","250","120","false","rigged_win","","","",""
"839","","pre_stim","single-stim-button","66","141544","0.0-7.4-0.4","columbia-card-task-hot","false","0","11","839","839","0","test","7","5","3","30","250","150","false","rigged_win","","","",""
"463","","pre_stim","single-stim-button","67","142008","0.0-7.5-0.5","columbia-card-task-hot","false","0","10","463","463","0","test","7","6","3","30","250","180","false","rigged_win","","","",""
"464","","pre_stim","single-stim-button","68","142472","0.0-7.6-0.6","columbia-card-task-hot","false","0","18","464","464","0","test","7","7","3","30","250","210","false","rigged_win","","","",""
"510","","pre_stim","single-stim-button","69","142984","0.0-7.7-0.7","columbia-card-task-hot","false","0","19","510","510","0","test","7","8","3","30","250","240","false","rigged_win","","","",""
"631","","pre_stim","single-stim-button","70","143616","0.0-7.8-0.8","columbia-card-task-hot","false","0","28","631","631","0","test","7","9","3","30","250","270","false","rigged_win","","","",""
"2550","","pre_stim","single-stim-button","71","146168","0.0-7.9-0.9","columbia-card-task-hot","false","0","turnButton","2550","2550","0","test","7","9","3","30","250","270","false","rigged_win","","","",""
"5071","","pre_stim","single-stim-button","72","151240","0.0-7.10-0.10","columbia-card-task-hot","false","0","collectButton","5071","5071","0","test","7","10","3","30","250","270","false","rigged_win","","","",""
"6943","","pre_stim","single-stim-button","73","158185","0.0-8.0-0.0","columbia-card-task-hot","false","0","1","6943","6943","0","test","8","1","3","30","750","30","false","rigged_win","","","",""
"422","","pre_stim","single-stim-button","74","158608","0.0-8.1-0.1","columbia-card-task-hot","false","0","2","422","422","0","test","8","2","3","30","750","60","false","rigged_win","","","",""
"1030","","pre_stim","single-stim-button","75","159640","0.0-8.2-0.2","columbia-card-task-hot","false","0","11","1030","1030","0","test","8","3","3","30","750","90","false","rigged_win","","","",""
"622","","pre_stim","single-stim-button","76","160264","0.0-8.3-0.3","columbia-card-task-hot","false","0","10","622","622","0","test","8","4","3","30","750","120","false","rigged_win","","","",""
"751","","pre_stim","single-stim-button","77","161016","0.0-8.4-0.4","columbia-card-task-hot","false","0","20","751","751","0","test","8","5","3","30","750","150","false","rigged_win","","","",""
"415","","pre_stim","single-stim-button","78","161432","0.0-8.5-0.5","columbia-card-task-hot","false","0","19","415","415","0","test","8","6","3","30","750","180","false","rigged_win","","","",""
"1150","","pre_stim","single-stim-button","79","162584","0.0-8.6-0.6","columbia-card-task-hot","false","0","28","1150","1150","0","test","8","7","3","30","750","210","false","rigged_win","","","",""
"590","","pre_stim","single-stim-button","80","163176","0.0-8.7-0.7","columbia-card-task-hot","false","0","29","590","590","0","test","8","8","3","30","750","240","false","rigged_win","","","",""
"2254","","pre_stim","single-stim-button","81","165432","0.0-8.8-0.8","columbia-card-task-hot","false","0","8","2254","2254","0","test","8","9","3","30","750","270","false","rigged_win","","","",""
"2640","","pre_stim","single-stim-button","82","168072","0.0-8.9-0.9","columbia-card-task-hot","false","0","turnButton","2640","2640","0","test","8","9","3","30","750","270","false","rigged_win","","","",""
"4806","","pre_stim","single-stim-button","83","172880","0.0-8.10-0.10","columbia-card-task-hot","false","0","collectButton","4806","4806","0","test","8","10","3","30","750","270","false","rigged_win","","","",""
"6671","","pre_stim","single-stim-button","84","179552","0.0-9.0-0.0","columbia-card-task-hot","false","0","14","6671","6671","0","test","9","1","1","30","250","30","false","rigged_win","","","",""
"454","","pre_stim","single-stim-button","85","180008","0.0-9.1-0.1","columbia-card-task-hot","false","0","15","454","454","0","test","9","2","1","30","250","60","false","rigged_win","","","",""
"1919","","pre_stim","single-stim-button","86","181928","0.0-9.2-0.2","columbia-card-task-hot","false","0","20","1919","1919","0","test","9","3","1","30","250","90","false","rigged_win","","","",""
"463","","pre_stim","single-stim-button","87","182391","0.0-9.3-0.3","columbia-card-task-hot","false","0","19","463","463","0","test","9","4","1","30","250","120","false","rigged_win","","","",""
"815","","pre_stim","single-stim-button","88","183208","0.0-9.4-0.4","columbia-card-task-hot","false","0","2","815","815","0","test","9","5","1","30","250","150","false","rigged_win","","","",""
"383","","pre_stim","single-stim-button","89","183592","0.0-9.5-0.5","columbia-card-task-hot","false","0","3","383","383","0","test","9","6","1","30","250","180","false","rigged_win","","","",""
"863","","pre_stim","single-stim-button","90","184456","0.0-9.6-0.6","columbia-card-task-hot","false","0","25","863","863","0","test","9","7","1","30","250","210","false","rigged_win","","","",""
"455","","pre_stim","single-stim-button","91","184912","0.0-9.7-0.7","columbia-card-task-hot","false","0","26","455","455","0","test","9","8","1","30","250","240","false","rigged_win","","","",""
"1199","","pre_stim","single-stim-button","92","186111","0.0-9.8-0.8","columbia-card-task-hot","false","0","32","1199","1199","0","test","9","9","1","30","250","270","false","rigged_win","","","",""
"2551","","pre_stim","single-stim-button","93","188663","0.0-9.9-0.9","columbia-card-task-hot","false","0","turnButton","2551","2551","0","test","9","9","1","30","250","270","false","rigged_win","","","",""
"5703","","pre_stim","single-stim-button","94","194368","0.0-9.10-0.10","columbia-card-task-hot","false","0","collectButton","5703","5703","0","test","9","10","1","30","250","270","false","rigged_win","","","",""
"6639","","pre_stim","single-stim-button","95","201008","0.0-10.0-0.0","columbia-card-task-hot","false","0","11","6639","6639","0","test","10","1","1","30","750","30","false","rigged_win","","","",""
"487","","pre_stim","single-stim-button","96","201496","0.0-10.1-0.1","columbia-card-task-hot","false","0","12","487","487","0","test","10","2","1","30","750","60","false","rigged_win","","","",""
"599","","pre_stim","single-stim-button","97","202095","0.0-10.2-0.2","columbia-card-task-hot","false","0","13","599","599","0","test","10","3","1","30","750","90","false","rigged_win","","","",""
"439","","pre_stim","single-stim-button","98","202536","0.0-10.3-0.3","columbia-card-task-hot","false","0","14","439","439","0","test","10","4","1","30","750","120","false","rigged_win","","","",""
"494","","pre_stim","single-stim-button","99","203031","0.0-10.4-0.4","columbia-card-task-hot","false","0","15","494","494","0","test","10","5","1","30","750","150","false","rigged_win","","","",""
"431","","pre_stim","single-stim-button","100","203464","0.0-10.5-0.5","columbia-card-task-hot","false","0","16","431","431","0","test","10","6","1","30","750","180","false","rigged_win","","","",""
"543","","pre_stim","single-stim-button","101","204008","0.0-10.6-0.6","columbia-card-task-hot","false","0","24","543","543","0","test","10","7","1","30","750","210","false","rigged_win","","","",""
"447","","pre_stim","single-stim-button","102","204456","0.0-10.7-0.7","columbia-card-task-hot","false","0","23","447","447","0","test","10","8","1","30","750","240","false","rigged_win","","","",""
"1079","","pre_stim","single-stim-button","103","205535","0.0-10.8-0.8","columbia-card-task-hot","false","0","21","1079","1079","0","test","10","9","1","30","750","270","false","rigged_win","","","",""
"1047","","pre_stim","single-stim-button","104","206583","0.0-10.9-0.9","columbia-card-task-hot","false","0","22","1047","1047","0","test","10","10","1","30","750","300","false","rigged_win","","","",""
"663","","pre_stim","single-stim-button","105","207247","0.0-10.10-0.10","columbia-card-task-hot","false","0","20","663","663","0","test","10","11","1","30","750","330","false","rigged_win","","","",""
"639","","pre_stim","single-stim-button","106","207887","0.0-10.11-0.11","columbia-card-task-hot","false","0","29","639","639","0","test","10","12","1","30","750","360","false","rigged_win","","","",""
"511","","pre_stim","single-stim-button","107","208400","0.0-10.12-0.12","columbia-card-task-hot","false","0","30","511","511","0","test","10","13","1","30","750","390","false","rigged_win","","","",""
"438","","pre_stim","single-stim-button","108","208839","0.0-10.13-0.13","columbia-card-task-hot","false","0","31","438","438","0","test","10","14","1","30","750","420","false","rigged_win","","","",""
"463","","pre_stim","single-stim-button","109","209304","0.0-10.14-0.14","columbia-card-task-hot","false","0","32","463","463","0","test","10","15","1","30","750","450","false","rigged_win","","","",""
"1783","","pre_stim","single-stim-button","110","211087","0.0-10.15-0.15","columbia-card-task-hot","false","0","turnButton","1783","1783","0","test","10","15","1","30","750","450","false","rigged_win","","","",""
"3911","","pre_stim","single-stim-button","111","215000","0.0-10.16-0.16","columbia-card-task-hot","false","0","collectButton","3911","3911","0","test","10","16","1","30","750","450","false","rigged_win","","","",""
"7527","","pre_stim","single-stim-button","112","222528","0.0-11.0-0.0","columbia-card-task-hot","false","0","14","7527","7527","0","test","11","1","1","30","250","30","false","rigged_loss","","","",""
"495","","pre_stim","single-stim-button","113","223024","0.0-11.1-0.1","columbia-card-task-hot","false","0","15","495","495","0","test","11","2","1","30","250","-220","true","rigged_loss","","","",""
"2790","","pre_stim","single-stim-button","114","225816","0.0-11.2-0.2","columbia-card-task-hot","false","0","collectButton","2790","2790","0","test","11","3","1","30","250","-220","true","rigged_loss","","","",""
"6831","","pre_stim","single-stim-button","115","232647","0.0-12.0-0.0","columbia-card-task-hot","false","0","1","6831","6831","0","test","12","1","1","10","250","10","false","rigged_win","","","",""
"423","","pre_stim","single-stim-button","116","233071","0.0-12.1-0.1","columbia-card-task-hot","false","0","2","423","423","0","test","12","2","1","10","250","20","false","rigged_win","","","",""
"495","","pre_stim","single-stim-button","117","233568","0.0-12.2-0.2","columbia-card-task-hot","false","0","3","495","495","0","test","12","3","1","10","250","30","false","rigged_win","","","",""
"526","","pre_stim","single-stim-button","118","234095","0.0-12.3-0.3","columbia-card-task-hot","false","0","4","526","526","0","test","12","4","1","10","250","40","false","rigged_win","","","",""
"631","","pre_stim","single-stim-button","119","234728","0.0-12.4-0.4","columbia-card-task-hot","false","0","5","631","631","0","test","12","5","1","10","250","50","false","rigged_win","","","",""
"622","","pre_stim","single-stim-button","120","235352","0.0-12.5-0.5","columbia-card-task-hot","false","0","6","622","622","0","test","12","6","1","10","250","60","false","rigged_win","","","",""
"1591","","pre_stim","single-stim-button","121","236943","0.0-12.6-0.6","columbia-card-task-hot","false","0","9","1591","1591","0","test","12","7","1","10","250","70","false","rigged_win","","","",""
"463","","pre_stim","single-stim-button","122","237408","0.0-12.7-0.7","columbia-card-task-hot","false","0","10","463","463","0","test","12","8","1","10","250","80","false","rigged_win","","","",""
"471","","pre_stim","single-stim-button","123","237880","0.0-12.8-0.8","columbia-card-task-hot","false","0","11","471","471","0","test","12","9","1","10","250","90","false","rigged_win","","","",""
"1413","","pre_stim","single-stim-button","124","239294","0.0-12.9-0.9","columbia-card-task-hot","false","0","12","1413","1413","0","test","12","10","1","10","250","100","false","rigged_win","","","",""
"447","","pre_stim","single-stim-button","125","239742","0.0-12.10-0.10","columbia-card-task-hot","false","0","13","447","447","0","test","12","11","1","10","250","110","false","rigged_win","","","",""
"510","","pre_stim","single-stim-button","126","240254","0.0-12.11-0.11","columbia-card-task-hot","false","0","14","510","510","0","test","12","12","1","10","250","120","false","rigged_win","","","",""
"1198","","pre_stim","single-stim-button","127","241454","0.0-12.12-0.12","columbia-card-task-hot","false","0","17","1198","1198","0","test","12","13","1","10","250","130","false","rigged_win","","","",""
"638","","pre_stim","single-stim-button","128","242094","0.0-12.13-0.13","columbia-card-task-hot","false","0","18","638","638","0","test","12","14","1","10","250","140","false","rigged_win","","","",""
"1406","","pre_stim","single-stim-button","129","243502","0.0-12.14-0.14","columbia-card-task-hot","false","0","26","1406","1406","0","test","12","15","1","10","250","150","false","rigged_win","","","",""
"575","","pre_stim","single-stim-button","130","244078","0.0-12.15-0.15","columbia-card-task-hot","false","0","25","575","575","0","test","12","16","1","10","250","160","false","rigged_win","","","",""
"2054","","pre_stim","single-stim-button","131","246134","0.0-12.16-0.16","columbia-card-task-hot","false","0","27","2054","2054","0","test","12","17","1","10","250","170","false","rigged_win","","","",""
"503","","pre_stim","single-stim-button","132","246638","0.0-12.17-0.17","columbia-card-task-hot","false","0","19","503","503","0","test","12","18","1","10","250","180","false","rigged_win","","","",""
"1398","","pre_stim","single-stim-button","133","248038","0.0-12.18-0.18","columbia-card-task-hot","false","0","turnButton","1398","1398","0","test","12","18","1","10","250","180","false","rigged_win","","","",""
"5375","","pre_stim","single-stim-button","134","253414","0.0-12.19-0.19","columbia-card-task-hot","false","0","collectButton","5375","5375","0","test","12","19","1","10","250","180","false","rigged_win","","","",""
"6431","","pre_stim","single-stim-button","135","259847","0.0-13.0-0.0","columbia-card-task-hot","false","0","8","6431","6431","0","test","13","1","3","30","250","30","false","rigged_win","","","",""
"982","","pre_stim","single-stim-button","136","260830","0.0-13.1-0.1","columbia-card-task-hot","false","0","16","982","982","0","test","13","2","3","30","250","60","false","rigged_win","","","",""
"1351","","pre_stim","single-stim-button","137","262182","0.0-13.2-0.2","columbia-card-task-hot","false","0","23","1351","1351","0","test","13","3","3","30","250","90","false","rigged_win","","","",""
"654","","pre_stim","single-stim-button","138","262838","0.0-13.3-0.3","columbia-card-task-hot","false","0","31","654","654","0","test","13","4","3","30","250","120","false","rigged_win","","","",""
"1063","","pre_stim","single-stim-button","139","263902","0.0-13.4-0.4","columbia-card-task-hot","false","0","14","1063","1063","0","test","13","5","3","30","250","150","false","rigged_win","","","",""
"550","","pre_stim","single-stim-button","140","264454","0.0-13.5-0.5","columbia-card-task-hot","false","0","6","550","550","0","test","13","6","3","30","250","180","false","rigged_win","","","",""
"1382","","pre_stim","single-stim-button","141","265838","0.0-13.6-0.6","columbia-card-task-hot","false","0","2","1382","1382","0","test","13","7","3","30","250","210","false","rigged_win","","","",""
"582","","pre_stim","single-stim-button","142","266422","0.0-13.7-0.7","columbia-card-task-hot","false","0","10","582","582","0","test","13","8","3","30","250","240","false","rigged_win","","","",""
"518","","pre_stim","single-stim-button","143","266942","0.0-13.8-0.8","columbia-card-task-hot","false","0","19","518","518","0","test","13","9","3","30","250","270","false","rigged_win","","","",""
"726","","pre_stim","single-stim-button","144","267670","0.0-13.9-0.9","columbia-card-task-hot","false","0","27","726","726","0","test","13","10","3","30","250","300","false","rigged_win","","","",""
"3534","","pre_stim","single-stim-button","145","271206","0.0-13.10-0.10","columbia-card-task-hot","false","0","17","3534","3534","0","test","13","11","3","30","250","330","false","rigged_win","","","",""
"1670","","pre_stim","single-stim-button","146","272878","0.0-13.11-0.11","columbia-card-task-hot","false","0","turnButton","1670","1670","0","test","13","11","3","30","250","330","false","rigged_win","","","",""
"6142","","pre_stim","single-stim-button","147","279022","0.0-13.12-0.12","columbia-card-task-hot","false","0","collectButton","6142","6142","0","test","13","12","3","30","250","330","false","rigged_win","","","",""
"8208","","pre_stim","single-stim-button","148","287231","0.0-14.0-0.0","columbia-card-task-hot","false","0","20","8208","8208","0","test","14","1","3","10","750","10","false","rigged_win","","","",""
"2454","","pre_stim","single-stim-button","149","289686","0.0-14.1-0.1","columbia-card-task-hot","false","0","21","2454","2454","0","test","14","2","3","10","750","20","false","rigged_win","","","",""
"398","","pre_stim","single-stim-button","150","290086","0.0-14.2-0.2","columbia-card-task-hot","false","0","29","398","398","0","test","14","3","3","10","750","30","false","rigged_win","","","",""
"967","","pre_stim","single-stim-button","151","291054","0.0-14.3-0.3","columbia-card-task-hot","false","0","28","967","967","0","test","14","4","3","10","750","40","false","rigged_win","","","",""
"854","","pre_stim","single-stim-button","152","291910","0.0-14.4-0.4","columbia-card-task-hot","false","0","30","854","854","0","test","14","5","3","10","750","50","false","rigged_win","","","",""
"414","","pre_stim","single-stim-button","153","292326","0.0-14.5-0.5","columbia-card-task-hot","false","0","31","414","414","0","test","14","6","3","10","750","60","false","rigged_win","","","",""
"958","","pre_stim","single-stim-button","154","293286","0.0-14.6-0.6","columbia-card-task-hot","false","0","27","958","958","0","test","14","7","3","10","750","70","false","rigged_win","","","",""
"486","","pre_stim","single-stim-button","155","293774","0.0-14.7-0.7","columbia-card-task-hot","false","0","26","486","486","0","test","14","8","3","10","750","80","false","rigged_win","","","",""
"3464","","pre_stim","single-stim-button","156","297238","0.0-14.8-0.8","columbia-card-task-hot","false","0","turnButton","3464","3464","0","test","14","8","3","10","750","80","false","rigged_win","","","",""
"5653","","pre_stim","single-stim-button","157","302893","0.0-14.9-0.9","columbia-card-task-hot","false","0","collectButton","5653","5653","0","test","14","9","3","10","750","80","false","rigged_win","","","",""
"7863","","pre_stim","single-stim-button","158","310757","0.0-15.0-0.0","columbia-card-task-hot","false","0","24","7863","7863","0","test","15","1","3","30","750","30","false","rigged_win","","","",""
"1447","","pre_stim","single-stim-button","159","312204","0.0-15.1-0.1","columbia-card-task-hot","false","0","9","1447","1447","0","test","15","2","3","30","750","60","false","rigged_win","","","",""
"511","","pre_stim","single-stim-button","160","312717","0.0-15.2-0.2","columbia-card-task-hot","false","0","17","511","511","0","test","15","3","3","30","750","90","false","rigged_win","","","",""
"846","","pre_stim","single-stim-button","161","313565","0.0-15.3-0.3","columbia-card-task-hot","false","0","18","846","846","0","test","15","4","3","30","750","120","false","rigged_win","","","",""
"478","","pre_stim","single-stim-button","162","314045","0.0-15.4-0.4","columbia-card-task-hot","false","0","10","478","478","0","test","15","5","3","30","750","150","false","rigged_win","","","",""
"2758","","pre_stim","single-stim-button","163","316805","0.0-15.5-0.5","columbia-card-task-hot","false","0","15","2758","2758","0","test","15","6","3","30","750","180","false","rigged_win","","","",""
"527","","pre_stim","single-stim-button","164","317333","0.0-15.6-0.6","columbia-card-task-hot","false","0","23","527","527","0","test","15","7","3","30","750","210","false","rigged_win","","","",""
"958","","pre_stim","single-stim-button","165","318292","0.0-15.7-0.7","columbia-card-task-hot","false","0","32","958","958","0","test","15","8","3","30","750","240","false","rigged_win","","","",""
"2743","","pre_stim","single-stim-button","166","321036","0.0-15.8-0.8","columbia-card-task-hot","false","0","25","2743","2743","0","test","15","9","3","30","750","270","false","rigged_win","","","",""
"519","","pre_stim","single-stim-button","167","321557","0.0-15.9-0.9","columbia-card-task-hot","false","0","26","519","519","0","test","15","10","3","30","750","300","false","rigged_win","","","",""
"1366","","pre_stim","single-stim-button","168","322924","0.0-15.10-0.10","columbia-card-task-hot","false","0","27","1366","1366","0","test","15","11","3","30","750","330","false","rigged_win","","","",""
"879","","pre_stim","single-stim-button","169","323805","0.0-15.11-0.11","columbia-card-task-hot","false","0","28","879","879","0","test","15","12","3","30","750","360","false","rigged_win","","","",""
"3607","","pre_stim","single-stim-button","170","327412","0.0-15.12-0.12","columbia-card-task-hot","false","0","2","3607","3607","0","test","15","13","3","30","750","390","false","rigged_win","","","",""
"1263","","pre_stim","single-stim-button","171","328677","0.0-15.13-0.13","columbia-card-task-hot","false","0","turnButton","1263","1263","0","test","15","13","3","30","750","390","false","rigged_win","","","",""
"6206","","pre_stim","single-stim-button","172","334885","0.0-15.14-0.14","columbia-card-task-hot","false","0","collectButton","6206","6206","0","test","15","14","3","30","750","390","false","rigged_win","","","",""
"6951","","pre_stim","single-stim-button","173","341837","0.0-16.0-0.0","columbia-card-task-hot","false","0","20","6951","6951","0","test","16","1","3","30","750","30","false","rigged_loss","","","",""
"486","","pre_stim","single-stim-button","174","342324","0.0-16.1-0.1","columbia-card-task-hot","false","0","21","486","486","0","test","16","2","3","30","750","60","false","rigged_loss","","","",""
"463","","pre_stim","single-stim-button","175","342789","0.0-16.2-0.2","columbia-card-task-hot","false","0","22","463","463","0","test","16","3","3","30","750","90","false","rigged_loss","","","",""
"390","","pre_stim","single-stim-button","176","343181","0.0-16.3-0.3","columbia-card-task-hot","false","0","23","390","390","0","test","16","4","3","30","750","120","false","rigged_loss","","","",""
"1862","","pre_stim","single-stim-button","177","345045","0.0-16.4-0.4","columbia-card-task-hot","false","0","24","1862","1862","0","test","16","5","3","30","750","150","false","rigged_loss","","","",""
"527","","pre_stim","single-stim-button","178","345573","0.0-16.5-0.5","columbia-card-task-hot","false","0","32","527","527","0","test","16","6","3","30","750","180","false","rigged_loss","","","",""
"470","","pre_stim","single-stim-button","179","346045","0.0-16.6-0.6","columbia-card-task-hot","false","0","31","470","470","0","test","16","7","3","30","750","210","false","rigged_loss","","","",""
"526","","pre_stim","single-stim-button","180","346573","0.0-16.7-0.7","columbia-card-task-hot","false","0","30","526","526","0","test","16","8","3","30","750","240","false","rigged_loss","","","",""
"1350","","pre_stim","single-stim-button","181","347925","0.0-16.8-0.8","columbia-card-task-hot","false","0","29","1350","1350","0","test","16","9","3","30","750","270","false","rigged_loss","","","",""
"550","","pre_stim","single-stim-button","182","348477","0.0-16.9-0.9","columbia-card-task-hot","false","0","28","550","550","0","test","16","10","3","30","750","-480","true","rigged_loss","","","",""
"4878","","pre_stim","single-stim-button","183","353357","0.0-16.10-0.10","columbia-card-task-hot","false","0","collectButton","4878","4878","0","test","16","11","3","30","750","-480","true","rigged_loss","","","",""
"7286","","pre_stim","single-stim-button","184","360645","0.0-17.0-0.0","columbia-card-task-hot","false","0","5","7286","7286","0","test","17","1","1","30","250","30","false","rigged_win","","","",""
"614","","pre_stim","single-stim-button","185","361260","0.0-17.1-0.1","columbia-card-task-hot","false","0","13","614","614","0","test","17","2","1","30","250","60","false","rigged_win","","","",""
"623","","pre_stim","single-stim-button","186","361885","0.0-17.2-0.2","columbia-card-task-hot","false","0","21","623","623","0","test","17","3","1","30","250","90","false","rigged_win","","","",""
"574","","pre_stim","single-stim-button","187","362461","0.0-17.3-0.3","columbia-card-task-hot","false","0","20","574","574","0","test","17","4","1","30","250","120","false","rigged_win","","","",""
"902","","pre_stim","single-stim-button","188","363365","0.0-17.4-0.4","columbia-card-task-hot","false","0","11","902","902","0","test","17","5","1","30","250","150","false","rigged_win","","","",""
"695","","pre_stim","single-stim-button","189","364060","0.0-17.5-0.5","columbia-card-task-hot","false","0","19","695","695","0","test","17","6","1","30","250","180","false","rigged_win","","","",""
"614","","pre_stim","single-stim-button","190","364677","0.0-17.6-0.6","columbia-card-task-hot","false","0","3","614","614","0","test","17","7","1","30","250","210","false","rigged_win","","","",""
"454","","pre_stim","single-stim-button","191","365133","0.0-17.7-0.7","columbia-card-task-hot","false","0","4","454","454","0","test","17","8","1","30","250","240","false","rigged_win","","","",""
"1655","","pre_stim","single-stim-button","192","366789","0.0-17.8-0.8","columbia-card-task-hot","false","0","6","1655","1655","0","test","17","9","1","30","250","270","false","rigged_win","","","",""
"766","","pre_stim","single-stim-button","193","367557","0.0-17.9-0.9","columbia-card-task-hot","false","0","2","766","766","0","test","17","10","1","30","250","300","false","rigged_win","","","",""
"1278","","pre_stim","single-stim-button","194","368837","0.0-17.10-0.10","columbia-card-task-hot","false","0","10","1278","1278","0","test","17","11","1","30","250","330","false","rigged_win","","","",""
"535","","pre_stim","single-stim-button","195","369372","0.0-17.11-0.11","columbia-card-task-hot","false","0","18","535","535","0","test","17","12","1","30","250","360","false","rigged_win","","","",""
"1878","","pre_stim","single-stim-button","196","371253","0.0-17.12-0.12","columbia-card-task-hot","false","0","30","1878","1878","0","test","17","13","1","30","250","390","false","rigged_win","","","",""
"638","","pre_stim","single-stim-button","197","371893","0.0-17.13-0.13","columbia-card-task-hot","false","0","31","638","638","0","test","17","14","1","30","250","420","false","rigged_win","","","",""
"887","","pre_stim","single-stim-button","198","372781","0.0-17.14-0.14","columbia-card-task-hot","false","0","32","887","887","0","test","17","15","1","30","250","450","false","rigged_win","","","",""
"1486","","pre_stim","single-stim-button","199","374268","0.0-17.15-0.15","columbia-card-task-hot","false","0","turnButton","1486","1486","0","test","17","15","1","30","250","450","false","rigged_win","","","",""
"3814","","pre_stim","single-stim-button","200","378085","0.0-17.16-0.16","columbia-card-task-hot","false","0","collectButton","3814","3814","0","test","17","16","1","30","250","450","false","rigged_win","","","",""
"7591","","pre_stim","single-stim-button","201","385677","0.0-18.0-0.0","columbia-card-task-hot","false","0","8","7591","7591","0","test","18","1","3","10","250","10","false","rigged_win","","","",""
"1598","","pre_stim","single-stim-button","202","387277","0.0-18.1-0.1","columbia-card-task-hot","false","0","23","1598","1598","0","test","18","2","3","10","250","20","false","rigged_win","","","",""
"686","","pre_stim","single-stim-button","203","387964","0.0-18.2-0.2","columbia-card-task-hot","false","0","30","686","686","0","test","18","3","3","10","250","30","false","rigged_win","","","",""
"575","","pre_stim","single-stim-button","204","388541","0.0-18.3-0.3","columbia-card-task-hot","false","0","22","575","575","0","test","18","4","3","10","250","40","false","rigged_win","","","",""
"646","","pre_stim","single-stim-button","205","389189","0.0-18.4-0.4","columbia-card-task-hot","false","0","14","646","646","0","test","18","5","3","10","250","50","false","rigged_win","","","",""
"614","","pre_stim","single-stim-button","206","389805","0.0-18.5-0.5","columbia-card-task-hot","false","0","6","614","614","0","test","18","6","3","10","250","60","false","rigged_win","","","",""
"366","","pre_stim","single-stim-button","207","390173","0.0-18.6-0.6","columbia-card-task-hot","false","0","7","366","366","0","test","18","7","3","10","250","70","false","rigged_win","","","",""
"390","","pre_stim","single-stim-button","208","390564","0.0-18.7-0.7","columbia-card-task-hot","false","0","15","390","390","0","test","18","8","3","10","250","80","false","rigged_win","","","",""
"1030","","pre_stim","single-stim-button","209","391597","0.0-18.8-0.8","columbia-card-task-hot","false","0","31","1030","1030","0","test","18","9","3","10","250","90","false","rigged_win","","","",""
"5391","","pre_stim","single-stim-button","210","396989","0.0-18.9-0.9","columbia-card-task-hot","false","0","turnButton","5391","5391","0","test","18","9","3","10","250","90","false","rigged_win","","","",""
"4966","","pre_stim","single-stim-button","211","401957","0.0-18.10-0.10","columbia-card-task-hot","false","0","collectButton","4966","4966","0","test","18","10","3","10","250","90","false","rigged_win","","","",""
"7294","","pre_stim","single-stim-button","212","409253","0.0-19.0-0.0","columbia-card-task-hot","false","0","2","7294","7294","0","test","19","1","1","30","250","30","false","rigged_loss","","","",""
"454","","pre_stim","single-stim-button","213","409709","0.0-19.1-0.1","columbia-card-task-hot","false","0","1","454","454","0","test","19","2","1","30","250","60","false","rigged_loss","","","",""
"686","","pre_stim","single-stim-button","214","410396","0.0-19.2-0.2","columbia-card-task-hot","false","0","3","686","686","0","test","19","3","1","30","250","90","false","rigged_loss","","","",""
"567","","pre_stim","single-stim-button","215","410965","0.0-19.3-0.3","columbia-card-task-hot","false","0","4","567","567","0","test","19","4","1","30","250","120","false","rigged_loss","","","",""
"446","","pre_stim","single-stim-button","216","411412","0.0-19.4-0.4","columbia-card-task-hot","false","0","12","446","446","0","test","19","5","1","30","250","150","false","rigged_loss","","","",""
"423","","pre_stim","single-stim-button","217","411837","0.0-19.5-0.5","columbia-card-task-hot","false","0","11","423","423","0","test","19","6","1","30","250","-100","true","rigged_loss","","","",""
"3598","","pre_stim","single-stim-button","218","415437","0.0-19.6-0.6","columbia-card-task-hot","false","0","collectButton","3598","3598","0","test","19","7","1","30","250","-100","true","rigged_loss","","","",""
"7766","","pre_stim","single-stim-button","219","423205","0.0-20.0-0.0","columbia-card-task-hot","false","0","6","7766","7766","0","test","20","1","3","10","250","10","false","rigged_loss","","","",""
"1318","","pre_stim","single-stim-button","220","424525","0.0-20.1-0.1","columbia-card-task-hot","false","0","5","1318","1318","0","test","20","2","3","10","250","-240","true","rigged_loss","","","",""
"4606","","pre_stim","single-stim-button","221","429133","0.0-20.2-0.2","columbia-card-task-hot","false","0","collectButton","4606","4606","0","test","20","3","3","10","250","-240","true","rigged_loss","","","",""
"22253","{""Q0"":""Karten aufzudecken"",""Q1"":""nein""}","post task questions","survey-text","222","451389","0.0-21.0","columbia-card-task-hot","false","0","","","","","","","","","","","","","","true","0","",""
"8012","","","poldrack-text","223","460413","0.0-22.0","columbia-card-task-hot","false","0","","","8012","1000","","","","","","","","","","","","<div class = centerbox><p class = center-block-text>Finished with this task.</p></div>","17"
