"rt","responses","trial_id","trial_type","trial_index","time_elapsed","internal_node_id","exp_id","full_screen","focus_shifts","mouse_click","stim_duration","block_duration","timing_post_trial","exp_stage","which_round","num_click_in_round","num_loss_cards","gain_amount","loss_amount","round_points","clicked_on_loss_card","round_type","credit_var","performance_var","text","key_press"
"24893","{""Q0"":""woVXz""}","pre task questions","survey-text","0","24895","0.0-0.0","columbia-card-task-hot","true","0","","","","","","","","","","","","","","","","",""
"6150","","pre_stim","single-stim-button","1","32055","0.0-1.0-0.0","columbia-card-task-hot","true","0","5","6150","6150","0","test","1","1","1","10","750","10","false","rigged_win","","","",""
"510","","pre_stim","single-stim-button","2","32566","0.0-1.1-0.1","columbia-card-task-hot","true","0","6","510","510","0","test","1","2","1","10","750","20","false","rigged_win","","","",""
"503","","pre_stim","single-stim-button","3","33070","0.0-1.2-0.2","columbia-card-task-hot","true","0","7","503","503","0","test","1","3","1","10","750","30","false","rigged_win","","","",""
"447","","pre_stim","single-stim-button","4","33518","0.0-1.3-0.3","columbia-card-task-hot","true","0","8","447","447","0","test","1","4","1","10","750","40","false","rigged_win","","","",""
"1095","","pre_stim","single-stim-button","5","34614","0.0-1.4-0.4","columbia-card-task-hot","true","0","4","1095","1095","0","test","1","5","1","10","750","50","false","rigged_win","","","",""
"503","","pre_stim","single-stim-button","6","35118","0.0-1.5-0.5","columbia-card-task-hot","true","0","3","503","503","0","test","1","6","1","10","750","60","false","rigged_win","","","",""
"511","","pre_stim","single-stim-button","7","35630","0.0-1.6-0.6","columbia-card-task-hot","true","0","2","511","511","0","test","1","7","1","10","750","70","false","rigged_win","","","",""
"479","","pre_stim","single-stim-button","8","36110","0.0-1.7-0.7","columbia-card-task-hot","true","0","1","479","479","0","test","1","8","1","10","750","80","false","rigged_win","","","",""
"895","","pre_stim","single-stim-button","9","37006","0.0-1.8-0.8","columbia-card-task-hot","true","0","9","895","895","0","test","1","9","1","10","750","90","false","rigged_win","","","",""
"399","","pre_stim","single-stim-button","10","37406","0.0-1.9-0.9","columbia-card-task-hot","true","0","17","399","399","0","test","1","10","1","10","750","100","false","rigged_win","","","",""
"455","","pre_stim","single-stim-button","11","37861","0.0-1.10-0.10","columbia-card-task-hot","true","0","25","455","455","0","test","1","11","1","10","750","110","false","rigged_win","","","",""
"407","","pre_stim","single-stim-button","12","38270","0.0-1.11-0.11","columbia-card-task-hot","true","0","26","407","407","0","test","1","12","1","10","750","120","false","rigged_win","","","",""
"383","","pre_stim","single-stim-button","13","38654","0.0-1.12-0.12","columbia-card-task-hot","true","0","27","383","383","0","test","1","13","1","10","750","130","false","rigged_win","","","",""
"439","","pre_stim","single-stim-button","14","39094","0.0-1.13-0.13","columbia-card-task-hot","true","0","28","439","439","0","test","1","14","1","10","750","140","false","rigged_win","","","",""
"431","","pre_stim","single-stim-button","15","39526","0.0-1.14-0.14","columbia-card-task-hot","true","0","29","431","431","0","test","1","15","1","10","750","150","false","rigged_win","","","",""
"391","","pre_stim","single-stim-button","16","39918","0.0-1.15-0.15","columbia-card-task-hot","true","0","30","391","391","0","test","1","16","1","10","750","160","false","rigged_win","","","",""
"383","","pre_stim","single-stim-button","17","40302","0.0-1.16-0.16","columbia-card-task-hot","true","0","31","383","383","0","test","1","17","1","10","750","170","false","rigged_win","","","",""
"375","","pre_stim","single-stim-button","18","40678","0.0-1.17-0.17","columbia-card-task-hot","true","0","32","375","375","0","test","1","18","1","10","750","180","false","rigged_win","","","",""
"391","","pre_stim","single-stim-button","19","41070","0.0-1.18-0.18","columbia-card-task-hot","true","0","24","391","391","0","test","1","19","1","10","750","190","false","rigged_win","","","",""
"559","","pre_stim","single-stim-button","20","41630","0.0-1.19-0.19","columbia-card-task-hot","true","0","16","559","559","0","test","1","20","1","10","750","200","false","rigged_win","","","",""
"1671","","pre_stim","single-stim-button","21","43302","0.0-1.20-0.20","columbia-card-task-hot","true","0","10","1671","1671","0","test","1","21","1","10","750","210","false","rigged_win","","","",""
"703","","pre_stim","single-stim-button","22","44006","0.0-1.21-0.21","columbia-card-task-hot","true","0","18","703","703","0","test","1","22","1","10","750","220","false","rigged_win","","","",""
"712","","pre_stim","single-stim-button","23","44718","0.0-1.22-0.22","columbia-card-task-hot","true","0","19","712","712","0","test","1","23","1","10","750","230","false","rigged_win","","","",""
"847","","pre_stim","single-stim-button","24","45566","0.0-1.23-0.23","columbia-card-task-hot","true","0","11","847","847","0","test","1","24","1","10","750","240","false","rigged_win","","","",""
"879","","pre_stim","single-stim-button","25","46446","0.0-1.24-0.24","columbia-card-task-hot","true","0","12","879","879","0","test","1","25","1","10","750","250","false","rigged_win","","","",""
"1960","","pre_stim","single-stim-button","26","48406","0.0-1.25-0.25","columbia-card-task-hot","true","0","23","1960","1960","0","test","1","26","1","10","750","260","false","rigged_win","","","",""
"543","","pre_stim","single-stim-button","27","48950","0.0-1.26-0.26","columbia-card-task-hot","true","0","15","543","543","0","test","1","27","1","10","750","270","false","rigged_win","","","",""
"2720","","pre_stim","single-stim-button","28","51670","0.0-1.27-0.27","columbia-card-task-hot","true","0","turnButton","2720","2720","0","test","1","27","1","10","750","270","false","rigged_win","","","",""
"4374","","pre_stim","single-stim-button","29","56045","0.0-1.28-0.28","columbia-card-task-hot","true","0","collectButton","4374","4374","0","test","1","28","1","10","750","270","false","rigged_win","","","",""
"6192","","pre_stim","single-stim-button","30","62238","0.0-2.0-0.0","columbia-card-task-hot","true","0","13","6192","6192","0","test","2","1","3","30","250","30","false","rigged_win","","","",""
"687","","pre_stim","single-stim-button","31","62925","0.0-2.1-0.1","columbia-card-task-hot","true","0","12","687","687","0","test","2","2","3","30","250","60","false","rigged_win","","","",""
"3960","","pre_stim","single-stim-button","32","66885","0.0-2.2-0.2","columbia-card-task-hot","true","0","14","3960","3960","0","test","2","3","3","30","250","90","false","rigged_win","","","",""
"1071","","pre_stim","single-stim-button","33","67957","0.0-2.3-0.3","columbia-card-task-hot","true","0","15","1071","1071","0","test","2","4","3","30","250","120","false","rigged_win","","","",""
"1912","","pre_stim","single-stim-button","34","69869","0.0-2.4-0.4","columbia-card-task-hot","true","0","8","1912","1912","0","test","2","5","3","30","250","150","false","rigged_win","","","",""
"2743","","pre_stim","single-stim-button","35","72613","0.0-2.5-0.5","columbia-card-task-hot","true","0","turnButton","2743","2743","0","test","2","5","3","30","250","150","false","rigged_win","","","",""
"4294","","pre_stim","single-stim-button","36","76908","0.0-2.6-0.6","columbia-card-task-hot","true","0","collectButton","4294","4294","0","test","2","6","3","30","250","150","false","rigged_win","","","",""
"6568","","pre_stim","single-stim-button","37","83478","0.0-3.0-0.0","columbia-card-task-hot","true","0","1","6568","6568","0","test","3","1","1","30","750","30","false","rigged_win","","","",""
"518","","pre_stim","single-stim-button","38","83997","0.0-3.1-0.1","columbia-card-task-hot","true","0","2","518","518","0","test","3","2","1","30","750","60","false","rigged_win","","","",""
"360","","pre_stim","single-stim-button","39","84357","0.0-3.2-0.2","columbia-card-task-hot","true","0","3","360","360","0","test","3","3","1","30","750","90","false","rigged_win","","","",""
"351","","pre_stim","single-stim-button","40","84709","0.0-3.3-0.3","columbia-card-task-hot","true","0","4","351","351","0","test","3","4","1","30","750","120","false","rigged_win","","","",""
"464","","pre_stim","single-stim-button","41","85173","0.0-3.4-0.4","columbia-card-task-hot","true","0","5","464","464","0","test","3","5","1","30","750","150","false","rigged_win","","","",""
"359","","pre_stim","single-stim-button","42","85533","0.0-3.5-0.5","columbia-card-task-hot","true","0","6","359","359","0","test","3","6","1","30","750","180","false","rigged_win","","","",""
"375","","pre_stim","single-stim-button","43","85909","0.0-3.6-0.6","columbia-card-task-hot","true","0","7","375","375","0","test","3","7","1","30","750","210","false","rigged_win","","","",""
"407","","pre_stim","single-stim-button","44","86317","0.0-3.7-0.7","columbia-card-task-hot","true","0","8","407","407","0","test","3","8","1","30","750","240","false","rigged_win","","","",""
"520","","pre_stim","single-stim-button","45","86837","0.0-3.8-0.8","columbia-card-task-hot","true","0","16","520","520","0","test","3","9","1","30","750","270","false","rigged_win","","","",""
"327","","pre_stim","single-stim-button","46","87164","0.0-3.9-0.9","columbia-card-task-hot","true","0","15","327","327","0","test","3","10","1","30","750","300","false","rigged_win","","","",""
"367","","pre_stim","single-stim-button","47","87533","0.0-3.10-0.10","columbia-card-task-hot","true","0","14","367","367","0","test","3","11","1","30","750","330","false","rigged_win","","","",""
"360","","pre_stim","single-stim-button","48","87893","0.0-3.11-0.11","columbia-card-task-hot","true","0","13","360","360","0","test","3","12","1","30","750","360","false","rigged_win","","","",""
"326","","pre_stim","single-stim-button","49","88221","0.0-3.12-0.12","columbia-card-task-hot","true","0","12","326","326","0","test","3","13","1","30","750","390","false","rigged_win","","","",""
"343","","pre_stim","single-stim-button","50","88565","0.0-3.13-0.13","columbia-card-task-hot","true","0","11","343","343","0","test","3","14","1","30","750","420","false","rigged_win","","","",""
"344","","pre_stim","single-stim-button","51","88909","0.0-3.14-0.14","columbia-card-task-hot","true","0","10","344","344","0","test","3","15","1","30","750","450","false","rigged_win","","","",""
"366","","pre_stim","single-stim-button","52","89277","0.0-3.15-0.15","columbia-card-task-hot","true","0","9","366","366","0","test","3","16","1","30","750","480","false","rigged_win","","","",""
"703","","pre_stim","single-stim-button","53","89981","0.0-3.16-0.16","columbia-card-task-hot","true","0","17","703","703","0","test","3","17","1","30","750","510","false","rigged_win","","","",""
"1024","","pre_stim","single-stim-button","54","91005","0.0-3.17-0.17","columbia-card-task-hot","true","0","18","1024","1024","0","test","3","18","1","30","750","540","false","rigged_win","","","",""
"1207","","pre_stim","single-stim-button","55","92213","0.0-3.18-0.18","columbia-card-task-hot","true","0","24","1207","1207","0","test","3","19","1","30","750","570","false","rigged_win","","","",""
"480","","pre_stim","single-stim-button","56","92693","0.0-3.19-0.19","columbia-card-task-hot","true","0","23","480","480","0","test","3","20","1","30","750","600","false","rigged_win","","","",""
"1792","","pre_stim","single-stim-button","57","94485","0.0-3.20-0.20","columbia-card-task-hot","true","0","turnButton","1792","1792","0","test","3","20","1","30","750","600","false","rigged_win","","","",""
"5311","","pre_stim","single-stim-button","58","99797","0.0-3.21-0.21","columbia-card-task-hot","true","0","collectButton","5311","5311","0","test","3","21","1","30","750","600","false","rigged_win","","","",""
"6718","","pre_stim","single-stim-button","59","106517","0.0-4.0-0.0","columbia-card-task-hot","true","0","25","6718","6718","0","test","4","1","1","30","750","30","false","rigged_loss","","","",""
"399","","pre_stim","single-stim-button","60","106917","0.0-4.1-0.1","columbia-card-task-hot","true","0","26","399","399","0","test","4","2","1","30","750","60","false","rigged_loss","","","",""
"1055","","pre_stim","single-stim-button","61","107973","0.0-4.2-0.2","columbia-card-task-hot","true","0","27","1055","1055","0","test","4","3","1","30","750","90","false","rigged_loss","","","",""
"407","","pre_stim","single-stim-button","62","108381","0.0-4.3-0.3","columbia-card-task-hot","true","0","28","407","407","0","test","4","4","1","30","750","120","false","rigged_loss","","","",""
"376","","pre_stim","single-stim-button","63","108757","0.0-4.4-0.4","columbia-card-task-hot","true","0","29","376","376","0","test","4","5","1","30","750","150","false","rigged_loss","","","",""
"367","","pre_stim","single-stim-button","64","109125","0.0-4.5-0.5","columbia-card-task-hot","true","0","30","367","367","0","test","4","6","1","30","750","180","false","rigged_loss","","","",""
"342","","pre_stim","single-stim-button","65","109469","0.0-4.6-0.6","columbia-card-task-hot","true","0","31","342","342","0","test","4","7","1","30","750","210","false","rigged_loss","","","",""
"335","","pre_stim","single-stim-button","66","109805","0.0-4.7-0.7","columbia-card-task-hot","true","0","32","335","335","0","test","4","8","1","30","750","-540","true","rigged_loss","","","",""
"7743","","pre_stim","single-stim-button","67","117549","0.0-4.8-0.8","columbia-card-task-hot","true","0","collectButton","7743","7743","0","test","4","9","1","30","750","-540","true","rigged_loss","","","",""
"9671","","pre_stim","single-stim-button","68","127222","0.0-5.0-0.0","columbia-card-task-hot","true","0","32","9671","9671","0","test","5","1","3","30","250","30","false","rigged_loss","","","",""
"1575","","pre_stim","single-stim-button","69","128797","0.0-5.1-0.1","columbia-card-task-hot","true","0","31","1575","1575","0","test","5","2","3","30","250","60","false","rigged_loss","","","",""
"775","","pre_stim","single-stim-button","70","129573","0.0-5.2-0.2","columbia-card-task-hot","true","0","30","775","775","0","test","5","3","3","30","250","90","false","rigged_loss","","","",""
"999","","pre_stim","single-stim-button","71","130573","0.0-5.3-0.3","columbia-card-task-hot","true","0","29","999","999","0","test","5","4","3","30","250","120","false","rigged_loss","","","",""
"919","","pre_stim","single-stim-button","72","131494","0.0-5.4-0.4","columbia-card-task-hot","true","0","28","919","919","0","test","5","5","3","30","250","150","false","rigged_loss","","","",""
"1103","","pre_stim","single-stim-button","73","132598","0.0-5.5-0.5","columbia-card-task-hot","true","0","27","1103","1103","0","test","5","6","3","30","250","180","false","rigged_loss","","","",""
"559","","pre_stim","single-stim-button","74","133158","0.0-5.6-0.6","columbia-card-task-hot","true","0","26","559","559","0","test","5","7","3","30","250","210","false","rigged_loss","","","",""
"4991","","pre_stim","single-stim-button","75","138149","0.0-5.7-0.7","columbia-card-task-hot","true","0","turnButton","4991","4991","0","test","5","7","3","30","250","210","false","rigged_loss","","","",""
"4591","","pre_stim","single-stim-button","76","142741","0.0-5.8-0.8","columbia-card-task-hot","true","0","collectButton","4591","4591","0","test","5","8","3","30","250","210","false","rigged_loss","","","",""
"6391","","pre_stim","single-stim-button","77","149134","0.0-6.0-0.0","columbia-card-task-hot","true","0","3","6391","6391","0","test","6","1","3","10","750","10","false","rigged_loss","","","",""
"5360","","pre_stim","single-stim-button","78","154494","0.0-6.1-0.1","columbia-card-task-hot","true","0","4","5360","5360","0","test","6","2","3","10","750","20","false","rigged_loss","","","",""
"4343","","pre_stim","single-stim-button","79","158838","0.0-6.2-0.2","columbia-card-task-hot","true","0","5","4343","4343","0","test","6","3","3","10","750","30","false","rigged_loss","","","",""
"1775","","pre_stim","single-stim-button","80","160614","0.0-6.3-0.3","columbia-card-task-hot","true","0","6","1775","1775","0","test","6","4","3","10","750","40","false","rigged_loss","","","",""
"742","","pre_stim","single-stim-button","81","161357","0.0-6.4-0.4","columbia-card-task-hot","true","0","7","742","742","0","test","6","5","3","10","750","50","false","rigged_loss","","","",""
"1768","","pre_stim","single-stim-button","82","163126","0.0-6.5-0.5","columbia-card-task-hot","true","0","8","1768","1768","0","test","6","6","3","10","750","60","false","rigged_loss","","","",""
"3047","","pre_stim","single-stim-button","83","166173","0.0-6.6-0.6","columbia-card-task-hot","true","0","2","3047","3047","0","test","6","7","3","10","750","70","false","rigged_loss","","","",""
"1023","","pre_stim","single-stim-button","84","167197","0.0-6.7-0.7","columbia-card-task-hot","true","0","1","1023","1023","0","test","6","8","3","10","750","-680","true","rigged_loss","","","",""
"2391","","pre_stim","single-stim-button","85","169589","0.0-6.8-0.8","columbia-card-task-hot","true","0","collectButton","2391","2391","0","test","6","9","3","10","750","-680","true","rigged_loss","","","",""
"10599","","pre_stim","single-stim-button","86","180190","0.0-7.0-0.0","columbia-card-task-hot","true","0","4","10599","10599","0","test","7","1","1","30","750","30","false","rigged_win","","","",""
"463","","pre_stim","single-stim-button","87","180654","0.0-7.1-0.1","columbia-card-task-hot","true","0","5","463","463","0","test","7","2","1","30","750","60","false","rigged_win","","","",""
"407","","pre_stim","single-stim-button","88","181062","0.0-7.2-0.2","columbia-card-task-hot","true","0","6","407","407","0","test","7","3","1","30","750","90","false","rigged_win","","","",""
"431","","pre_stim","single-stim-button","89","181493","0.0-7.3-0.3","columbia-card-task-hot","true","0","7","431","431","0","test","7","4","1","30","750","120","false","rigged_win","","","",""
"519","","pre_stim","single-stim-button","90","182014","0.0-7.4-0.4","columbia-card-task-hot","true","0","8","519","519","0","test","7","5","1","30","750","150","false","rigged_win","","","",""
"495","","pre_stim","single-stim-button","91","182510","0.0-7.5-0.5","columbia-card-task-hot","true","0","16","495","495","0","test","7","6","1","30","750","180","false","rigged_win","","","",""
"439","","pre_stim","single-stim-button","92","182950","0.0-7.6-0.6","columbia-card-task-hot","true","0","15","439","439","0","test","7","7","1","30","750","210","false","rigged_win","","","",""
"439","","pre_stim","single-stim-button","93","183390","0.0-7.7-0.7","columbia-card-task-hot","true","0","14","439","439","0","test","7","8","1","30","750","240","false","rigged_win","","","",""
"479","","pre_stim","single-stim-button","94","183869","0.0-7.8-0.8","columbia-card-task-hot","true","0","13","479","479","0","test","7","9","1","30","750","270","false","rigged_win","","","",""
"439","","pre_stim","single-stim-button","95","184310","0.0-7.9-0.9","columbia-card-task-hot","true","0","12","439","439","0","test","7","10","1","30","750","300","false","rigged_win","","","",""
"407","","pre_stim","single-stim-button","96","184718","0.0-7.10-0.10","columbia-card-task-hot","true","0","11","407","407","0","test","7","11","1","30","750","330","false","rigged_win","","","",""
"439","","pre_stim","single-stim-button","97","185158","0.0-7.11-0.11","columbia-card-task-hot","true","0","3","439","439","0","test","7","12","1","30","750","360","false","rigged_win","","","",""
"471","","pre_stim","single-stim-button","98","185630","0.0-7.12-0.12","columbia-card-task-hot","true","0","2","471","471","0","test","7","13","1","30","750","390","false","rigged_win","","","",""
"831","","pre_stim","single-stim-button","99","186461","0.0-7.13-0.13","columbia-card-task-hot","true","0","1","831","831","0","test","7","14","1","30","750","420","false","rigged_win","","","",""
"655","","pre_stim","single-stim-button","100","187118","0.0-7.14-0.14","columbia-card-task-hot","true","0","9","655","655","0","test","7","15","1","30","750","450","false","rigged_win","","","",""
"479","","pre_stim","single-stim-button","101","187597","0.0-7.15-0.15","columbia-card-task-hot","true","0","10","479","479","0","test","7","16","1","30","750","480","false","rigged_win","","","",""
"1527","","pre_stim","single-stim-button","102","189125","0.0-7.16-0.16","columbia-card-task-hot","true","0","17","1527","1527","0","test","7","17","1","30","750","510","false","rigged_win","","","",""
"711","","pre_stim","single-stim-button","103","189838","0.0-7.17-0.17","columbia-card-task-hot","true","0","18","711","711","0","test","7","18","1","30","750","540","false","rigged_win","","","",""
"1110","","pre_stim","single-stim-button","104","190950","0.0-7.18-0.18","columbia-card-task-hot","true","0","19","1110","1110","0","test","7","19","1","30","750","570","false","rigged_win","","","",""
"1927","","pre_stim","single-stim-button","105","192878","0.0-7.19-0.19","columbia-card-task-hot","true","0","turnButton","1927","1927","0","test","7","19","1","30","750","570","false","rigged_win","","","",""
"3590","","pre_stim","single-stim-button","106","196470","0.0-7.20-0.20","columbia-card-task-hot","true","0","collectButton","3590","3590","0","test","7","20","1","30","750","570","false","rigged_win","","","",""
"5783","","pre_stim","single-stim-button","107","202254","0.0-8.0-0.0","columbia-card-task-hot","true","0","8","5783","5783","0","test","8","1","3","10","750","10","false","rigged_win","","","",""
"518","","pre_stim","single-stim-button","108","202773","0.0-8.1-0.1","columbia-card-task-hot","true","0","7","518","518","0","test","8","2","3","10","750","20","false","rigged_win","","","",""
"415","","pre_stim","single-stim-button","109","203190","0.0-8.2-0.2","columbia-card-task-hot","true","0","6","415","415","0","test","8","3","3","10","750","30","false","rigged_win","","","",""
"430","","pre_stim","single-stim-button","110","203622","0.0-8.3-0.3","columbia-card-task-hot","true","0","5","430","430","0","test","8","4","3","10","750","40","false","rigged_win","","","",""
"655","","pre_stim","single-stim-button","111","204278","0.0-8.4-0.4","columbia-card-task-hot","true","0","4","655","655","0","test","8","5","3","10","750","50","false","rigged_win","","","",""
"519","","pre_stim","single-stim-button","112","204798","0.0-8.5-0.5","columbia-card-task-hot","true","0","3","519","519","0","test","8","6","3","10","750","60","false","rigged_win","","","",""
"478","","pre_stim","single-stim-button","113","205277","0.0-8.6-0.6","columbia-card-task-hot","true","0","2","478","478","0","test","8","7","3","10","750","70","false","rigged_win","","","",""
"399","","pre_stim","single-stim-button","114","205678","0.0-8.7-0.7","columbia-card-task-hot","true","0","1","399","399","0","test","8","8","3","10","750","80","false","rigged_win","","","",""
"463","","pre_stim","single-stim-button","115","206142","0.0-8.8-0.8","columbia-card-task-hot","true","0","9","463","463","0","test","8","9","3","10","750","90","false","rigged_win","","","",""
"454","","pre_stim","single-stim-button","116","206598","0.0-8.9-0.9","columbia-card-task-hot","true","0","10","454","454","0","test","8","10","3","10","750","100","false","rigged_win","","","",""
"607","","pre_stim","single-stim-button","117","207206","0.0-8.10-0.10","columbia-card-task-hot","true","0","11","607","607","0","test","8","11","3","10","750","110","false","rigged_win","","","",""
"399","","pre_stim","single-stim-button","118","207605","0.0-8.11-0.11","columbia-card-task-hot","true","0","12","399","399","0","test","8","12","3","10","750","120","false","rigged_win","","","",""
"431","","pre_stim","single-stim-button","119","208038","0.0-8.12-0.12","columbia-card-task-hot","true","0","13","431","431","0","test","8","13","3","10","750","130","false","rigged_win","","","",""
"391","","pre_stim","single-stim-button","120","208429","0.0-8.13-0.13","columbia-card-task-hot","true","0","14","391","391","0","test","8","14","3","10","750","140","false","rigged_win","","","",""
"415","","pre_stim","single-stim-button","121","208845","0.0-8.14-0.14","columbia-card-task-hot","true","0","15","415","415","0","test","8","15","3","10","750","150","false","rigged_win","","","",""
"367","","pre_stim","single-stim-button","122","209214","0.0-8.15-0.15","columbia-card-task-hot","true","0","16","367","367","0","test","8","16","3","10","750","160","false","rigged_win","","","",""
"431","","pre_stim","single-stim-button","123","209646","0.0-8.16-0.16","columbia-card-task-hot","true","0","24","431","431","0","test","8","17","3","10","750","170","false","rigged_win","","","",""
"358","","pre_stim","single-stim-button","124","210006","0.0-8.17-0.17","columbia-card-task-hot","true","0","23","358","358","0","test","8","18","3","10","750","180","false","rigged_win","","","",""
"382","","pre_stim","single-stim-button","125","210390","0.0-8.18-0.18","columbia-card-task-hot","true","0","22","382","382","0","test","8","19","3","10","750","190","false","rigged_win","","","",""
"406","","pre_stim","single-stim-button","126","210798","0.0-8.19-0.19","columbia-card-task-hot","true","0","21","406","406","0","test","8","20","3","10","750","200","false","rigged_win","","","",""
"423","","pre_stim","single-stim-button","127","211222","0.0-8.20-0.20","columbia-card-task-hot","true","0","20","423","423","0","test","8","21","3","10","750","210","false","rigged_win","","","",""
"375","","pre_stim","single-stim-button","128","211598","0.0-8.21-0.21","columbia-card-task-hot","true","0","19","375","375","0","test","8","22","3","10","750","220","false","rigged_win","","","",""
"374","","pre_stim","single-stim-button","129","211974","0.0-8.22-0.22","columbia-card-task-hot","true","0","18","374","374","0","test","8","23","3","10","750","230","false","rigged_win","","","",""
"367","","pre_stim","single-stim-button","130","212341","0.0-8.23-0.23","columbia-card-task-hot","true","0","17","367","367","0","test","8","24","3","10","750","240","false","rigged_win","","","",""
"1423","","pre_stim","single-stim-button","131","213766","0.0-8.24-0.24","columbia-card-task-hot","true","0","turnButton","1423","1423","0","test","8","24","3","10","750","240","false","rigged_win","","","",""
"3038","","pre_stim","single-stim-button","132","216806","0.0-8.25-0.25","columbia-card-task-hot","true","0","collectButton","3038","3038","0","test","8","25","3","10","750","240","false","rigged_win","","","",""
"6071","","pre_stim","single-stim-button","133","222878","0.0-9.0-0.0","columbia-card-task-hot","true","0","8","6071","6071","0","test","9","1","3","10","750","10","false","rigged_loss","","","",""
"2622","","pre_stim","single-stim-button","134","225502","0.0-9.1-0.1","columbia-card-task-hot","true","0","7","2622","2622","0","test","9","2","3","10","750","-740","true","rigged_loss","","","",""
"2742","","pre_stim","single-stim-button","135","228246","0.0-9.2-0.2","columbia-card-task-hot","true","0","collectButton","2742","2742","0","test","9","3","3","10","750","-740","true","rigged_loss","","","",""
"5743","","pre_stim","single-stim-button","136","233990","0.0-10.0-0.0","columbia-card-task-hot","true","0","2","5743","5743","0","test","10","1","3","10","250","10","false","rigged_win","","","",""
"398","","pre_stim","single-stim-button","137","234390","0.0-10.1-0.1","columbia-card-task-hot","true","0","3","398","398","0","test","10","2","3","10","250","20","false","rigged_win","","","",""
"367","","pre_stim","single-stim-button","138","234758","0.0-10.2-0.2","columbia-card-task-hot","true","0","4","367","367","0","test","10","3","3","10","250","30","false","rigged_win","","","",""
"366","","pre_stim","single-stim-button","139","235126","0.0-10.3-0.3","columbia-card-task-hot","true","0","5","366","366","0","test","10","4","3","10","250","40","false","rigged_win","","","",""
"414","","pre_stim","single-stim-button","140","235541","0.0-10.4-0.4","columbia-card-task-hot","true","0","6","414","414","0","test","10","5","3","10","250","50","false","rigged_win","","","",""
"527","","pre_stim","single-stim-button","141","236070","0.0-10.5-0.5","columbia-card-task-hot","true","0","7","527","527","0","test","10","6","3","10","250","60","false","rigged_win","","","",""
"479","","pre_stim","single-stim-button","142","236550","0.0-10.6-0.6","columbia-card-task-hot","true","0","8","479","479","0","test","10","7","3","10","250","70","false","rigged_win","","","",""
"686","","pre_stim","single-stim-button","143","237238","0.0-10.7-0.7","columbia-card-task-hot","true","0","16","686","686","0","test","10","8","3","10","250","80","false","rigged_win","","","",""
"351","","pre_stim","single-stim-button","144","237590","0.0-10.8-0.8","columbia-card-task-hot","true","0","15","351","351","0","test","10","9","3","10","250","90","false","rigged_win","","","",""
"350","","pre_stim","single-stim-button","145","237942","0.0-10.9-0.9","columbia-card-task-hot","true","0","14","350","350","0","test","10","10","3","10","250","100","false","rigged_win","","","",""
"503","","pre_stim","single-stim-button","146","238446","0.0-10.10-0.10","columbia-card-task-hot","true","0","13","503","503","0","test","10","11","3","10","250","110","false","rigged_win","","","",""
"455","","pre_stim","single-stim-button","147","238901","0.0-10.11-0.11","columbia-card-task-hot","true","0","12","455","455","0","test","10","12","3","10","250","120","false","rigged_win","","","",""
"439","","pre_stim","single-stim-button","148","239341","0.0-10.12-0.12","columbia-card-task-hot","true","0","11","439","439","0","test","10","13","3","10","250","130","false","rigged_win","","","",""
"1422","","pre_stim","single-stim-button","149","240765","0.0-10.13-0.13","columbia-card-task-hot","true","0","10","1422","1422","0","test","10","14","3","10","250","140","false","rigged_win","","","",""
"5087","","pre_stim","single-stim-button","150","245853","0.0-10.14-0.14","columbia-card-task-hot","true","0","18","5087","5087","0","test","10","15","3","10","250","150","false","rigged_win","","","",""
"663","","pre_stim","single-stim-button","151","246517","0.0-10.15-0.15","columbia-card-task-hot","true","0","19","663","663","0","test","10","16","3","10","250","160","false","rigged_win","","","",""
"615","","pre_stim","single-stim-button","152","247133","0.0-10.16-0.16","columbia-card-task-hot","true","0","20","615","615","0","test","10","17","3","10","250","170","false","rigged_win","","","",""
"1007","","pre_stim","single-stim-button","153","248141","0.0-10.17-0.17","columbia-card-task-hot","true","0","21","1007","1007","0","test","10","18","3","10","250","180","false","rigged_win","","","",""
"1807","","pre_stim","single-stim-button","154","249949","0.0-10.18-0.18","columbia-card-task-hot","true","0","turnButton","1807","1807","0","test","10","18","3","10","250","180","false","rigged_win","","","",""
"9639","","pre_stim","single-stim-button","155","259589","0.0-10.19-0.19","columbia-card-task-hot","true","0","collectButton","9639","9639","0","test","10","19","3","10","250","180","false","rigged_win","","","",""
"6095","","pre_stim","single-stim-button","156","265686","0.0-11.0-0.0","columbia-card-task-hot","true","0","5","6095","6095","0","test","11","1","1","30","250","30","false","rigged_win","","","",""
"431","","pre_stim","single-stim-button","157","266117","0.0-11.1-0.1","columbia-card-task-hot","true","0","6","431","431","0","test","11","2","1","30","250","60","false","rigged_win","","","",""
"423","","pre_stim","single-stim-button","158","266541","0.0-11.2-0.2","columbia-card-task-hot","true","0","7","423","423","0","test","11","3","1","30","250","90","false","rigged_win","","","",""
"734","","pre_stim","single-stim-button","159","267277","0.0-11.3-0.3","columbia-card-task-hot","true","0","8","734","734","0","test","11","4","1","30","250","120","false","rigged_win","","","",""
"2223","","pre_stim","single-stim-button","160","269501","0.0-11.4-0.4","columbia-card-task-hot","true","0","16","2223","2223","0","test","11","5","1","30","250","150","false","rigged_win","","","",""
"679","","pre_stim","single-stim-button","161","270181","0.0-11.5-0.5","columbia-card-task-hot","true","0","15","679","679","0","test","11","6","1","30","250","180","false","rigged_win","","","",""
"630","","pre_stim","single-stim-button","162","270813","0.0-11.6-0.6","columbia-card-task-hot","true","0","14","630","630","0","test","11","7","1","30","250","210","false","rigged_win","","","",""
"640","","pre_stim","single-stim-button","163","271454","0.0-11.7-0.7","columbia-card-task-hot","true","0","13","640","640","0","test","11","8","1","30","250","240","false","rigged_win","","","",""
"1758","","pre_stim","single-stim-button","164","273213","0.0-11.8-0.8","columbia-card-task-hot","true","0","18","1758","1758","0","test","11","9","1","30","250","270","false","rigged_win","","","",""
"2511","","pre_stim","single-stim-button","165","275725","0.0-11.9-0.9","columbia-card-task-hot","true","0","19","2511","2511","0","test","11","10","1","30","250","300","false","rigged_win","","","",""
"1055","","pre_stim","single-stim-button","166","276781","0.0-11.10-0.10","columbia-card-task-hot","true","0","turnButton","1055","1055","0","test","11","10","1","30","250","300","false","rigged_win","","","",""
"3733","","pre_stim","single-stim-button","167","280517","0.0-11.11-0.11","columbia-card-task-hot","true","0","collectButton","3733","3733","0","test","11","11","1","30","250","300","false","rigged_win","","","",""
"5935","","pre_stim","single-stim-button","168","286453","0.0-12.0-0.0","columbia-card-task-hot","true","0","13","5935","5935","0","test","12","1","3","30","750","30","false","rigged_win","","","",""
"1559","","pre_stim","single-stim-button","169","288013","0.0-12.1-0.1","columbia-card-task-hot","true","0","14","1559","1559","0","test","12","2","3","30","750","60","false","rigged_win","","","",""
"3111","","pre_stim","single-stim-button","170","291125","0.0-12.2-0.2","columbia-card-task-hot","true","0","15","3111","3111","0","test","12","3","3","30","750","90","false","rigged_win","","","",""
"1279","","pre_stim","single-stim-button","171","292405","0.0-12.3-0.3","columbia-card-task-hot","true","0","turnButton","1279","1279","0","test","12","3","3","30","750","90","false","rigged_win","","","",""
"4094","","pre_stim","single-stim-button","172","296501","0.0-12.4-0.4","columbia-card-task-hot","true","0","collectButton","4094","4094","0","test","12","4","3","30","750","90","false","rigged_win","","","",""
"6048","","pre_stim","single-stim-button","173","302549","0.0-13.0-0.0","columbia-card-task-hot","true","0","18","6048","6048","0","test","13","1","3","30","250","30","false","rigged_win","","","",""
"1030","","pre_stim","single-stim-button","174","303580","0.0-13.1-0.1","columbia-card-task-hot","true","0","19","1030","1030","0","test","13","2","3","30","250","60","false","rigged_win","","","",""
"631","","pre_stim","single-stim-button","175","304213","0.0-13.2-0.2","columbia-card-task-hot","true","0","17","631","631","0","test","13","3","3","30","250","90","false","rigged_win","","","",""
"774","","pre_stim","single-stim-button","176","304988","0.0-13.3-0.3","columbia-card-task-hot","true","0","26","774","774","0","test","13","4","3","30","250","120","false","rigged_win","","","",""
"559","","pre_stim","single-stim-button","177","305549","0.0-13.4-0.4","columbia-card-task-hot","true","0","27","559","559","0","test","13","5","3","30","250","150","false","rigged_win","","","",""
"2438","","pre_stim","single-stim-button","178","307989","0.0-13.5-0.5","columbia-card-task-hot","true","0","25","2438","2438","0","test","13","6","3","30","250","180","false","rigged_win","","","",""
"1158","","pre_stim","single-stim-button","179","309149","0.0-13.6-0.6","columbia-card-task-hot","true","0","9","1158","1158","0","test","13","7","3","30","250","210","false","rigged_win","","","",""
"430","","pre_stim","single-stim-button","180","309581","0.0-13.7-0.7","columbia-card-task-hot","true","0","10","430","430","0","test","13","8","3","30","250","240","false","rigged_win","","","",""
"454","","pre_stim","single-stim-button","181","310037","0.0-13.8-0.8","columbia-card-task-hot","true","0","11","454","454","0","test","13","9","3","30","250","270","false","rigged_win","","","",""
"1399","","pre_stim","single-stim-button","182","311437","0.0-13.9-0.9","columbia-card-task-hot","true","0","8","1399","1399","0","test","13","10","3","30","250","300","false","rigged_win","","","",""
"510","","pre_stim","single-stim-button","183","311949","0.0-13.10-0.10","columbia-card-task-hot","true","0","7","510","510","0","test","13","11","3","30","250","330","false","rigged_win","","","",""
"886","","pre_stim","single-stim-button","184","312837","0.0-13.11-0.11","columbia-card-task-hot","true","0","16","886","886","0","test","13","12","3","30","250","360","false","rigged_win","","","",""
"1542","","pre_stim","single-stim-button","185","314380","0.0-13.12-0.12","columbia-card-task-hot","true","0","turnButton","1542","1542","0","test","13","12","3","30","250","360","false","rigged_win","","","",""
"4574","","pre_stim","single-stim-button","186","318956","0.0-13.13-0.13","columbia-card-task-hot","true","0","collectButton","4574","4574","0","test","13","13","3","30","250","360","false","rigged_win","","","",""
"6062","","pre_stim","single-stim-button","187","325021","0.0-14.0-0.0","columbia-card-task-hot","true","0","1","6062","6062","0","test","14","1","1","30","250","30","false","rigged_win","","","",""
"742","","pre_stim","single-stim-button","188","325765","0.0-14.1-0.1","columbia-card-task-hot","true","0","2","742","742","0","test","14","2","1","30","250","60","false","rigged_win","","","",""
"310","","pre_stim","single-stim-button","189","326077","0.0-14.2-0.2","columbia-card-task-hot","true","0","3","310","310","0","test","14","3","1","30","250","90","false","rigged_win","","","",""
"342","","pre_stim","single-stim-button","190","326421","0.0-14.3-0.3","columbia-card-task-hot","true","0","4","342","342","0","test","14","4","1","30","250","120","false","rigged_win","","","",""
"406","","pre_stim","single-stim-button","191","326829","0.0-14.4-0.4","columbia-card-task-hot","true","0","5","406","406","0","test","14","5","1","30","250","150","false","rigged_win","","","",""
"422","","pre_stim","single-stim-button","192","327253","0.0-14.5-0.5","columbia-card-task-hot","true","0","6","422","422","0","test","14","6","1","30","250","180","false","rigged_win","","","",""
"350","","pre_stim","single-stim-button","193","327605","0.0-14.6-0.6","columbia-card-task-hot","true","0","7","350","350","0","test","14","7","1","30","250","210","false","rigged_win","","","",""
"478","","pre_stim","single-stim-button","194","328085","0.0-14.7-0.7","columbia-card-task-hot","true","0","8","478","478","0","test","14","8","1","30","250","240","false","rigged_win","","","",""
"487","","pre_stim","single-stim-button","195","328572","0.0-14.8-0.8","columbia-card-task-hot","true","0","16","487","487","0","test","14","9","1","30","250","270","false","rigged_win","","","",""
"310","","pre_stim","single-stim-button","196","328885","0.0-14.9-0.9","columbia-card-task-hot","true","0","15","310","310","0","test","14","10","1","30","250","300","false","rigged_win","","","",""
"326","","pre_stim","single-stim-button","197","329213","0.0-14.10-0.10","columbia-card-task-hot","true","0","14","326","326","0","test","14","11","1","30","250","330","false","rigged_win","","","",""
"342","","pre_stim","single-stim-button","198","329557","0.0-14.11-0.11","columbia-card-task-hot","true","0","13","342","342","0","test","14","12","1","30","250","360","false","rigged_win","","","",""
"350","","pre_stim","single-stim-button","199","329909","0.0-14.12-0.12","columbia-card-task-hot","true","0","12","350","350","0","test","14","13","1","30","250","390","false","rigged_win","","","",""
"334","","pre_stim","single-stim-button","200","330245","0.0-14.13-0.13","columbia-card-task-hot","true","0","11","334","334","0","test","14","14","1","30","250","420","false","rigged_win","","","",""
"326","","pre_stim","single-stim-button","201","330573","0.0-14.14-0.14","columbia-card-task-hot","true","0","10","326","326","0","test","14","15","1","30","250","450","false","rigged_win","","","",""
"343","","pre_stim","single-stim-button","202","330917","0.0-14.15-0.15","columbia-card-task-hot","true","0","9","343","343","0","test","14","16","1","30","250","480","false","rigged_win","","","",""
"1326","","pre_stim","single-stim-button","203","332245","0.0-14.16-0.16","columbia-card-task-hot","true","0","24","1326","1326","0","test","14","17","1","30","250","510","false","rigged_win","","","",""
"359","","pre_stim","single-stim-button","204","332605","0.0-14.17-0.17","columbia-card-task-hot","true","0","23","359","359","0","test","14","18","1","30","250","540","false","rigged_win","","","",""
"318","","pre_stim","single-stim-button","205","332925","0.0-14.18-0.18","columbia-card-task-hot","true","0","22","318","318","0","test","14","19","1","30","250","570","false","rigged_win","","","",""
"350","","pre_stim","single-stim-button","206","333277","0.0-14.19-0.19","columbia-card-task-hot","true","0","21","350","350","0","test","14","20","1","30","250","600","false","rigged_win","","","",""
"431","","pre_stim","single-stim-button","207","333709","0.0-14.20-0.20","columbia-card-task-hot","true","0","20","431","431","0","test","14","21","1","30","250","630","false","rigged_win","","","",""
"1118","","pre_stim","single-stim-button","208","334829","0.0-14.21-0.21","columbia-card-task-hot","true","0","32","1118","1118","0","test","14","22","1","30","250","660","false","rigged_win","","","",""
"335","","pre_stim","single-stim-button","209","335165","0.0-14.22-0.22","columbia-card-task-hot","true","0","31","335","335","0","test","14","23","1","30","250","690","false","rigged_win","","","",""
"1102","","pre_stim","single-stim-button","210","336269","0.0-14.23-0.23","columbia-card-task-hot","true","0","17","1102","1102","0","test","14","24","1","30","250","720","false","rigged_win","","","",""
"638","","pre_stim","single-stim-button","211","336909","0.0-14.24-0.24","columbia-card-task-hot","true","0","18","638","638","0","test","14","25","1","30","250","750","false","rigged_win","","","",""
"694","","pre_stim","single-stim-button","212","337605","0.0-14.25-0.25","columbia-card-task-hot","true","0","19","694","694","0","test","14","26","1","30","250","780","false","rigged_win","","","",""
"2118","","pre_stim","single-stim-button","213","339725","0.0-14.26-0.26","columbia-card-task-hot","true","0","turnButton","2118","2118","0","test","14","26","1","30","250","780","false","rigged_win","","","",""
"3534","","pre_stim","single-stim-button","214","343261","0.0-14.27-0.27","columbia-card-task-hot","true","0","collectButton","3534","3534","0","test","14","27","1","30","250","780","false","rigged_win","","","",""
"6511","","pre_stim","single-stim-button","215","349773","0.0-15.0-0.0","columbia-card-task-hot","true","0","1","6511","6511","0","test","15","1","1","10","250","10","false","rigged_loss","","","",""
"334","","pre_stim","single-stim-button","216","350109","0.0-15.1-0.1","columbia-card-task-hot","true","0","2","334","334","0","test","15","2","1","10","250","20","false","rigged_loss","","","",""
"326","","pre_stim","single-stim-button","217","350437","0.0-15.2-0.2","columbia-card-task-hot","true","0","3","326","326","0","test","15","3","1","10","250","30","false","rigged_loss","","","",""
"1735","","pre_stim","single-stim-button","218","352172","0.0-15.3-0.3","columbia-card-task-hot","true","0","4","1735","1735","0","test","15","4","1","10","250","40","false","rigged_loss","","","",""
"350","","pre_stim","single-stim-button","219","352525","0.0-15.4-0.4","columbia-card-task-hot","true","0","5","350","350","0","test","15","5","1","10","250","50","false","rigged_loss","","","",""
"342","","pre_stim","single-stim-button","220","352869","0.0-15.5-0.5","columbia-card-task-hot","true","0","6","342","342","0","test","15","6","1","10","250","60","false","rigged_loss","","","",""
"318","","pre_stim","single-stim-button","221","353189","0.0-15.6-0.6","columbia-card-task-hot","true","0","7","318","318","0","test","15","7","1","10","250","70","false","rigged_loss","","","",""
"310","","pre_stim","single-stim-button","222","353501","0.0-15.7-0.7","columbia-card-task-hot","true","0","8","310","310","0","test","15","8","1","10","250","80","false","rigged_loss","","","",""
"326","","pre_stim","single-stim-button","223","353828","0.0-15.8-0.8","columbia-card-task-hot","true","0","16","326","326","0","test","15","9","1","10","250","-170","true","rigged_loss","","","",""
"5158","","pre_stim","single-stim-button","224","358989","0.0-15.9-0.9","columbia-card-task-hot","true","0","collectButton","5158","5158","0","test","15","10","1","10","250","-170","true","rigged_loss","","","",""
"6406","","pre_stim","single-stim-button","225","365397","0.0-16.0-0.0","columbia-card-task-hot","true","0","1","6406","6406","0","test","16","1","1","10","250","10","false","rigged_win","","","",""
"350","","pre_stim","single-stim-button","226","365749","0.0-16.1-0.1","columbia-card-task-hot","true","0","2","350","350","0","test","16","2","1","10","250","20","false","rigged_win","","","",""
"310","","pre_stim","single-stim-button","227","366060","0.0-16.2-0.2","columbia-card-task-hot","true","0","3","310","310","0","test","16","3","1","10","250","30","false","rigged_win","","","",""
"303","","pre_stim","single-stim-button","228","366365","0.0-16.3-0.3","columbia-card-task-hot","true","0","4","303","303","0","test","16","4","1","10","250","40","false","rigged_win","","","",""
"318","","pre_stim","single-stim-button","229","366685","0.0-16.4-0.4","columbia-card-task-hot","true","0","5","318","318","0","test","16","5","1","10","250","50","false","rigged_win","","","",""
"302","","pre_stim","single-stim-button","230","366988","0.0-16.5-0.5","columbia-card-task-hot","true","0","6","302","302","0","test","16","6","1","10","250","60","false","rigged_win","","","",""
"303","","pre_stim","single-stim-button","231","367293","0.0-16.6-0.6","columbia-card-task-hot","true","0","7","303","303","0","test","16","7","1","10","250","70","false","rigged_win","","","",""
"430","","pre_stim","single-stim-button","232","367725","0.0-16.7-0.7","columbia-card-task-hot","true","0","8","430","430","0","test","16","8","1","10","250","80","false","rigged_win","","","",""
"318","","pre_stim","single-stim-button","233","368045","0.0-16.8-0.8","columbia-card-task-hot","true","0","16","318","318","0","test","16","9","1","10","250","90","false","rigged_win","","","",""
"302","","pre_stim","single-stim-button","234","368348","0.0-16.9-0.9","columbia-card-task-hot","true","0","15","302","302","0","test","16","10","1","10","250","100","false","rigged_win","","","",""
"335","","pre_stim","single-stim-button","235","368684","0.0-16.10-0.10","columbia-card-task-hot","true","0","14","335","335","0","test","16","11","1","10","250","110","false","rigged_win","","","",""
"326","","pre_stim","single-stim-button","236","369012","0.0-16.11-0.11","columbia-card-task-hot","true","0","13","326","326","0","test","16","12","1","10","250","120","false","rigged_win","","","",""
"350","","pre_stim","single-stim-button","237","369365","0.0-16.12-0.12","columbia-card-task-hot","true","0","12","350","350","0","test","16","13","1","10","250","130","false","rigged_win","","","",""
"326","","pre_stim","single-stim-button","238","369693","0.0-16.13-0.13","columbia-card-task-hot","true","0","11","326","326","0","test","16","14","1","10","250","140","false","rigged_win","","","",""
"342","","pre_stim","single-stim-button","239","370036","0.0-16.14-0.14","columbia-card-task-hot","true","0","10","342","342","0","test","16","15","1","10","250","150","false","rigged_win","","","",""
"343","","pre_stim","single-stim-button","240","370380","0.0-16.15-0.15","columbia-card-task-hot","true","0","9","343","343","0","test","16","16","1","10","250","160","false","rigged_win","","","",""
"334","","pre_stim","single-stim-button","241","370717","0.0-16.16-0.16","columbia-card-task-hot","true","0","17","334","334","0","test","16","17","1","10","250","170","false","rigged_win","","","",""
"334","","pre_stim","single-stim-button","242","371053","0.0-16.17-0.17","columbia-card-task-hot","true","0","18","334","334","0","test","16","18","1","10","250","180","false","rigged_win","","","",""
"391","","pre_stim","single-stim-button","243","371445","0.0-16.18-0.18","columbia-card-task-hot","true","0","19","391","391","0","test","16","19","1","10","250","190","false","rigged_win","","","",""
"310","","pre_stim","single-stim-button","244","371757","0.0-16.19-0.19","columbia-card-task-hot","true","0","20","310","310","0","test","16","20","1","10","250","200","false","rigged_win","","","",""
"438","","pre_stim","single-stim-button","245","372196","0.0-16.20-0.20","columbia-card-task-hot","true","0","21","438","438","0","test","16","21","1","10","250","210","false","rigged_win","","","",""
"334","","pre_stim","single-stim-button","246","372532","0.0-16.21-0.21","columbia-card-task-hot","true","0","22","334","334","0","test","16","22","1","10","250","220","false","rigged_win","","","",""
"303","","pre_stim","single-stim-button","247","372837","0.0-16.22-0.22","columbia-card-task-hot","true","0","23","303","303","0","test","16","23","1","10","250","230","false","rigged_win","","","",""
"334","","pre_stim","single-stim-button","248","373172","0.0-16.23-0.23","columbia-card-task-hot","true","0","24","334","334","0","test","16","24","1","10","250","240","false","rigged_win","","","",""
"342","","pre_stim","single-stim-button","249","373517","0.0-16.24-0.24","columbia-card-task-hot","true","0","32","342","342","0","test","16","25","1","10","250","250","false","rigged_win","","","",""
"334","","pre_stim","single-stim-button","250","373852","0.0-16.25-0.25","columbia-card-task-hot","true","0","31","334","334","0","test","16","26","1","10","250","260","false","rigged_win","","","",""
"326","","pre_stim","single-stim-button","251","374181","0.0-16.26-0.26","columbia-card-task-hot","true","0","30","326","326","0","test","16","27","1","10","250","270","false","rigged_win","","","",""
"342","","pre_stim","single-stim-button","252","374524","0.0-16.27-0.27","columbia-card-task-hot","true","0","29","342","342","0","test","16","28","1","10","250","280","false","rigged_win","","","",""
"343","","pre_stim","single-stim-button","253","374869","0.0-16.28-0.28","columbia-card-task-hot","true","0","28","343","343","0","test","16","29","1","10","250","290","false","rigged_win","","","",""
"478","","pre_stim","single-stim-button","254","375349","0.0-16.29-0.29","columbia-card-task-hot","true","0","27","478","478","0","test","16","30","1","10","250","300","false","rigged_win","","","",""
"622","","pre_stim","single-stim-button","255","375973","0.0-16.30-0.30","columbia-card-task-hot","true","0","25","622","622","0","test","16","31","1","10","250","310","false","rigged_win","","","",""
"1286","","pre_stim","single-stim-button","256","377260","0.0-16.31-0.31","columbia-card-task-hot","true","0","turnButton","1286","1286","0","test","16","31","1","10","250","310","false","rigged_win","","","",""
"4671","","pre_stim","single-stim-button","257","381932","0.0-16.32-0.32","columbia-card-task-hot","true","0","collectButton","4671","4671","0","test","16","32","1","10","250","310","false","rigged_win","","","",""
"6206","","pre_stim","single-stim-button","258","388141","0.0-17.0-0.0","columbia-card-task-hot","true","0","1","6206","6206","0","test","17","1","1","30","250","30","false","rigged_loss","","","",""
"342","","pre_stim","single-stim-button","259","388485","0.0-17.1-0.1","columbia-card-task-hot","true","0","2","342","342","0","test","17","2","1","30","250","-220","true","rigged_loss","","","",""
"5165","","pre_stim","single-stim-button","260","393653","0.0-17.2-0.2","columbia-card-task-hot","true","0","collectButton","5165","5165","0","test","17","3","1","30","250","-220","true","rigged_loss","","","",""
"6526","","pre_stim","single-stim-button","261","400181","0.0-18.0-0.0","columbia-card-task-hot","true","0","8","6526","6526","0","test","18","1","3","10","750","10","false","rigged_win","","","",""
"686","","pre_stim","single-stim-button","262","400869","0.0-18.1-0.1","columbia-card-task-hot","true","0","7","686","686","0","test","18","2","3","10","750","20","false","rigged_win","","","",""
"502","","pre_stim","single-stim-button","263","401373","0.0-18.2-0.2","columbia-card-task-hot","true","0","6","502","502","0","test","18","3","3","10","750","30","false","rigged_win","","","",""
"501","","pre_stim","single-stim-button","264","401876","0.0-18.3-0.3","columbia-card-task-hot","true","0","5","501","501","0","test","18","4","3","10","750","40","false","rigged_win","","","",""
"879","","pre_stim","single-stim-button","265","402756","0.0-18.4-0.4","columbia-card-task-hot","true","0","4","879","879","0","test","18","5","3","10","750","50","false","rigged_win","","","",""
"1750","","pre_stim","single-stim-button","266","404509","0.0-18.5-0.5","columbia-card-task-hot","true","0","turnButton","1750","1750","0","test","18","5","3","10","750","50","false","rigged_win","","","",""
"4598","","pre_stim","single-stim-button","267","409109","0.0-18.6-0.6","columbia-card-task-hot","true","0","collectButton","4598","4598","0","test","18","6","3","10","750","50","false","rigged_win","","","",""
"6471","","pre_stim","single-stim-button","268","415581","0.0-19.0-0.0","columbia-card-task-hot","true","0","5","6471","6471","0","test","19","1","3","30","750","30","false","rigged_win","","","",""
"2029","","pre_stim","single-stim-button","269","417613","0.0-19.1-0.1","columbia-card-task-hot","true","0","4","2029","2029","0","test","19","2","3","30","750","60","false","rigged_win","","","",""
"1206","","pre_stim","single-stim-button","270","418821","0.0-19.2-0.2","columbia-card-task-hot","true","0","6","1206","1206","0","test","19","3","3","30","750","90","false","rigged_win","","","",""
"3885","","pre_stim","single-stim-button","271","422707","0.0-19.3-0.3","columbia-card-task-hot","true","0","11","3885","3885","0","test","19","4","3","30","750","120","false","rigged_win","","","",""
"1542","","pre_stim","single-stim-button","272","424251","0.0-19.4-0.4","columbia-card-task-hot","true","0","turnButton","1542","1542","0","test","19","4","3","30","750","120","false","rigged_win","","","",""
"4670","","pre_stim","single-stim-button","273","428923","0.0-19.5-0.5","columbia-card-task-hot","true","0","collectButton","4670","4670","0","test","19","5","3","30","750","120","false","rigged_win","","","",""
"6022","","pre_stim","single-stim-button","274","434948","0.0-20.0-0.0","columbia-card-task-hot","true","0","8","6022","6022","0","test","20","1","3","10","250","10","false","rigged_loss","","","",""
"366","","pre_stim","single-stim-button","275","435316","0.0-20.1-0.1","columbia-card-task-hot","true","0","7","366","366","0","test","20","2","3","10","250","20","false","rigged_loss","","","",""
"454","","pre_stim","single-stim-button","276","435772","0.0-20.2-0.2","columbia-card-task-hot","true","0","6","454","454","0","test","20","3","3","10","250","30","false","rigged_loss","","","",""
"1102","","pre_stim","single-stim-button","277","436875","0.0-20.3-0.3","columbia-card-task-hot","true","0","16","1102","1102","0","test","20","4","3","10","250","40","false","rigged_loss","","","",""
"774","","pre_stim","single-stim-button","278","437651","0.0-20.4-0.4","columbia-card-task-hot","true","0","15","774","774","0","test","20","5","3","10","250","50","false","rigged_loss","","","",""
"1230","","pre_stim","single-stim-button","279","438884","0.0-20.5-0.5","columbia-card-task-hot","true","0","5","1230","1230","0","test","20","6","3","10","250","60","false","rigged_loss","","","",""
"1014","","pre_stim","single-stim-button","280","439899","0.0-20.6-0.6","columbia-card-task-hot","true","0","25","1014","1014","0","test","20","7","3","10","250","70","false","rigged_loss","","","",""
"750","","pre_stim","single-stim-button","281","440651","0.0-20.7-0.7","columbia-card-task-hot","true","0","26","750","750","0","test","20","8","3","10","250","80","false","rigged_loss","","","",""
"758","","pre_stim","single-stim-button","282","441411","0.0-20.8-0.8","columbia-card-task-hot","true","0","18","758","758","0","test","20","9","3","10","250","-170","true","rigged_loss","","","",""
"2470","","pre_stim","single-stim-button","283","443883","0.0-20.9-0.9","columbia-card-task-hot","true","0","collectButton","2470","2470","0","test","20","10","3","10","250","-170","true","rigged_loss","","","",""
"35605","{""Q0"":""Ich sollte mglichst viele Gewinnkarten aufdecken."",""Q1"":""""}","post task questions","survey-text","284","479492","0.0-21.0","columbia-card-task-hot","true","0","","","","","","","","","","","","","","true","0","",""
"7435","","","poldrack-text","285","487939","0.0-22.0","columbia-card-task-hot","true","0","","","7435","1000","","","","","","","","","","","","<div class = centerbox><p class = center-block-text>Finished with this task.</p></div>","17"
